"","trial","set_size","rt","accuracy","response","correct_response","mapping","condition","location","color","locations","colors","mean_accuracy4","mean_accuracy8","mean_accuracy_combined","capacity4","capacity8","capacity_combined","exclude_chance","exclude_4","exclude_inattention"
"1",1,8,"772","true","s","s","ks","d","b","orange","b,a,f,e,g,i,k,j","green,yellow,cyan,black,magenta,blue,brown,red",0.789473684210526,0.650793650793651,0.720133667502089,2.31578947368421,2.41269841269841,2.36424394319131,FALSE,FALSE,FALSE
"2",2,4,"675","true","k","k","ks","s","c","green","c,e,i,j","green,cyan,orange,blue",0.789473684210526,0.650793650793651,0.720133667502089,2.31578947368421,2.41269841269841,2.36424394319131,FALSE,FALSE,FALSE
"3",3,8,"565","true","s","s","ks","d","g","black","a,b,e,d,g,i,l,k","cyan,magenta,red,blue,yellow,brown,orange,green",0.789473684210526,0.650793650793651,0.720133667502089,2.31578947368421,2.41269841269841,2.36424394319131,FALSE,FALSE,FALSE
"4",4,8,"499","true","s","s","ks","d","g","blue","c,a,d,f,g,h,l,j","orange,yellow,red,green,magenta,cyan,black,brown",0.789473684210526,0.650793650793651,0.720133667502089,2.31578947368421,2.41269841269841,2.36424394319131,FALSE,FALSE,FALSE
"5",5,4,"699","true","k","k","ks","s","l","orange","c,d,g,l","red,brown,blue,orange",0.789473684210526,0.650793650793651,0.720133667502089,2.31578947368421,2.41269841269841,2.36424394319131,FALSE,FALSE,FALSE
"6",6,8,"620","false","s","k","ks","s","a","yellow","c,a,f,d,g,h,k,j","brown,yellow,green,black,magenta,blue,orange,cyan",0.789473684210526,0.650793650793651,0.720133667502089,2.31578947368421,2.41269841269841,2.36424394319131,FALSE,FALSE,FALSE
"7",7,8,"531","false","s","k","ks","s","l","orange","c,b,e,f,g,i,l,j","blue,green,cyan,black,yellow,red,orange,brown",0.789473684210526,0.650793650793651,0.720133667502089,2.31578947368421,2.41269841269841,2.36424394319131,FALSE,FALSE,FALSE
"8",8,8,"711","true","k","k","ks","s","a","green","b,a,d,e,h,i,k,l","orange,green,cyan,magenta,blue,yellow,red,black",0.789473684210526,0.650793650793651,0.720133667502089,2.31578947368421,2.41269841269841,2.36424394319131,FALSE,FALSE,FALSE
"9",9,4,"558","true","s","s","ks","d","j","blue","a,f,h,j","magenta,cyan,orange,brown",0.789473684210526,0.650793650793651,0.720133667502089,2.31578947368421,2.41269841269841,2.36424394319131,FALSE,FALSE,FALSE
"10",10,8,"639","true","s","s","ks","d","l","magenta","c,a,e,f,h,i,l,j","black,yellow,orange,green,cyan,red,blue,brown",0.789473684210526,0.650793650793651,0.720133667502089,2.31578947368421,2.41269841269841,2.36424394319131,FALSE,FALSE,FALSE
"11",11,4,"580","false","k","s","ks","d","l","yellow","b,e,h,l","brown,magenta,green,blue",0.789473684210526,0.650793650793651,0.720133667502089,2.31578947368421,2.41269841269841,2.36424394319131,FALSE,FALSE,FALSE
"12",12,8,"563","true","s","s","ks","d","d","cyan","c,b,e,d,h,i,l,j","orange,green,black,blue,magenta,brown,red,yellow",0.789473684210526,0.650793650793651,0.720133667502089,2.31578947368421,2.41269841269841,2.36424394319131,FALSE,FALSE,FALSE
"13",13,8,"544","false","s","k","ks","s","f","orange","c,b,e,f,h,g,k,l","yellow,brown,red,orange,black,magenta,blue,green",0.789473684210526,0.650793650793651,0.720133667502089,2.31578947368421,2.41269841269841,2.36424394319131,FALSE,FALSE,FALSE
"14",14,4,"727","true","k","k","ks","s","k","red","b,f,g,k","blue,black,green,red",0.789473684210526,0.650793650793651,0.720133667502089,2.31578947368421,2.41269841269841,2.36424394319131,FALSE,FALSE,FALSE
"15",15,4,"729","true","k","k","ks","s","i","red","b,d,i,k","orange,blue,red,brown",0.789473684210526,0.650793650793651,0.720133667502089,2.31578947368421,2.41269841269841,2.36424394319131,FALSE,FALSE,FALSE
"16",16,4,"633","true","s","s","ks","d","c","yellow","c,d,h,l","blue,green,orange,black",0.789473684210526,0.650793650793651,0.720133667502089,2.31578947368421,2.41269841269841,2.36424394319131,FALSE,FALSE,FALSE
"17",17,4,"788","true","k","k","ks","s","k","brown","c,f,g,k","green,orange,black,brown",0.789473684210526,0.650793650793651,0.720133667502089,2.31578947368421,2.41269841269841,2.36424394319131,FALSE,FALSE,FALSE
"18",18,8,"673","false","s","k","ks","s","l","blue","c,b,e,d,h,g,l,j","red,magenta,black,yellow,cyan,brown,blue,green",0.789473684210526,0.650793650793651,0.720133667502089,2.31578947368421,2.41269841269841,2.36424394319131,FALSE,FALSE,FALSE
"19",19,8,"576","true","k","k","ks","s","a","magenta","c,a,e,d,h,i,k,j","red,magenta,cyan,green,black,blue,brown,orange",0.789473684210526,0.650793650793651,0.720133667502089,2.31578947368421,2.41269841269841,2.36424394319131,FALSE,FALSE,FALSE
"20",20,8,"582","false","k","s","ks","d","b","magenta","c,b,f,d,i,h,k,j","cyan,blue,green,yellow,black,orange,brown,red",0.789473684210526,0.650793650793651,0.720133667502089,2.31578947368421,2.41269841269841,2.36424394319131,FALSE,FALSE,FALSE
"21",21,4,"521","true","s","s","ks","d","h","red","b,f,h,k","blue,black,brown,green",0.789473684210526,0.650793650793651,0.720133667502089,2.31578947368421,2.41269841269841,2.36424394319131,FALSE,FALSE,FALSE
"22",22,4,"692","true","k","k","ks","s","c","black","c,e,g,j","black,red,yellow,orange",0.789473684210526,0.650793650793651,0.720133667502089,2.31578947368421,2.41269841269841,2.36424394319131,FALSE,FALSE,FALSE
"23",23,8,"510","true","s","s","ks","d","k","brown","b,a,d,f,i,g,k,j","cyan,blue,black,magenta,red,yellow,orange,green",0.789473684210526,0.650793650793651,0.720133667502089,2.31578947368421,2.41269841269841,2.36424394319131,FALSE,FALSE,FALSE
"24",24,8,"535","false","s","k","ks","s","e","green","c,a,e,f,g,h,k,j","brown,blue,green,cyan,black,orange,magenta,red",0.789473684210526,0.650793650793651,0.720133667502089,2.31578947368421,2.41269841269841,2.36424394319131,FALSE,FALSE,FALSE
"25",25,8,"369","true","s","s","ks","d","k","red","b,c,d,f,h,g,k,j","blue,magenta,yellow,orange,brown,cyan,green,black",0.789473684210526,0.650793650793651,0.720133667502089,2.31578947368421,2.41269841269841,2.36424394319131,FALSE,FALSE,FALSE
"26",26,4,"525","true","s","s","ks","d","h","red","a,f,h,k","magenta,black,yellow,green",0.789473684210526,0.650793650793651,0.720133667502089,2.31578947368421,2.41269841269841,2.36424394319131,FALSE,FALSE,FALSE
"27",27,4,"504","true","k","k","ks","s","a","red","a,d,g,j","red,blue,magenta,brown",0.789473684210526,0.650793650793651,0.720133667502089,2.31578947368421,2.41269841269841,2.36424394319131,FALSE,FALSE,FALSE
"28",28,4,"369","true","s","s","ks","d","c","black","c,d,h,l","cyan,blue,green,orange",0.789473684210526,0.650793650793651,0.720133667502089,2.31578947368421,2.41269841269841,2.36424394319131,FALSE,FALSE,FALSE
"29",29,4,"535","true","s","s","ks","d","l","red","b,e,i,l","green,yellow,cyan,black",0.789473684210526,0.650793650793651,0.720133667502089,2.31578947368421,2.41269841269841,2.36424394319131,FALSE,FALSE,FALSE
"30",30,4,"556","false","s","k","ks","s","g","orange","a,e,g,k","black,blue,orange,red",0.789473684210526,0.650793650793651,0.720133667502089,2.31578947368421,2.41269841269841,2.36424394319131,FALSE,FALSE,FALSE
"31",31,8,"583","true","k","k","ks","s","a","magenta","a,b,d,f,i,g,k,j","magenta,yellow,orange,black,red,blue,brown,cyan",0.789473684210526,0.650793650793651,0.720133667502089,2.31578947368421,2.41269841269841,2.36424394319131,FALSE,FALSE,FALSE
"32",32,4,"481","true","k","k","ks","s","f","green","c,f,h,k","blue,green,brown,black",0.789473684210526,0.650793650793651,0.720133667502089,2.31578947368421,2.41269841269841,2.36424394319131,FALSE,FALSE,FALSE
"33",33,8,"634","true","s","s","ks","d","g","orange","a,c,e,f,g,h,l,j","cyan,green,magenta,black,red,blue,brown,yellow",0.789473684210526,0.650793650793651,0.720133667502089,2.31578947368421,2.41269841269841,2.36424394319131,FALSE,FALSE,FALSE
"34",34,8,"430","true","k","k","ks","s","f","brown","b,c,e,f,i,h,l,j","yellow,cyan,red,brown,black,blue,magenta,orange",0.789473684210526,0.650793650793651,0.720133667502089,2.31578947368421,2.41269841269841,2.36424394319131,FALSE,FALSE,FALSE
"35",35,8,"459","true","s","s","ks","d","g","red","a,c,d,f,g,h,l,k","brown,yellow,orange,green,magenta,blue,cyan,black",0.789473684210526,0.650793650793651,0.720133667502089,2.31578947368421,2.41269841269841,2.36424394319131,FALSE,FALSE,FALSE
"36",36,8,"468","true","s","s","ks","d","g","green","b,c,d,f,g,i,k,j","cyan,blue,brown,magenta,black,yellow,red,orange",0.789473684210526,0.650793650793651,0.720133667502089,2.31578947368421,2.41269841269841,2.36424394319131,FALSE,FALSE,FALSE
"37",37,8,"504","true","s","s","ks","d","d","orange","c,b,d,f,g,h,k,j","cyan,blue,brown,black,green,yellow,red,magenta",0.789473684210526,0.650793650793651,0.720133667502089,2.31578947368421,2.41269841269841,2.36424394319131,FALSE,FALSE,FALSE
"38",38,8,"433","true","k","k","ks","s","i","yellow","a,c,e,d,g,i,j,l","orange,red,black,brown,green,yellow,cyan,magenta",0.789473684210526,0.650793650793651,0.720133667502089,2.31578947368421,2.41269841269841,2.36424394319131,FALSE,FALSE,FALSE
"39",39,8,"1014","false","k","s","ks","d","f","brown","b,a,f,e,h,i,j,l","orange,yellow,green,blue,magenta,red,black,cyan",0.789473684210526,0.650793650793651,0.720133667502089,2.31578947368421,2.41269841269841,2.36424394319131,FALSE,FALSE,FALSE
"40",40,8,"544","false","s","k","ks","s","l","magenta","c,a,d,f,i,h,l,k","cyan,black,blue,brown,yellow,red,magenta,orange",0.789473684210526,0.650793650793651,0.720133667502089,2.31578947368421,2.41269841269841,2.36424394319131,FALSE,FALSE,FALSE
"41",41,4,"617","true","k","k","ks","s","l","red","a,e,i,l","cyan,magenta,brown,red",0.789473684210526,0.650793650793651,0.720133667502089,2.31578947368421,2.41269841269841,2.36424394319131,FALSE,FALSE,FALSE
"42",42,8,"697","true","s","s","ks","d","f","black","b,a,f,e,g,i,l,k","orange,green,yellow,blue,brown,magenta,cyan,red",0.789473684210526,0.650793650793651,0.720133667502089,2.31578947368421,2.41269841269841,2.36424394319131,FALSE,FALSE,FALSE
"43",43,4,"531","true","s","s","ks","d","c","yellow","c,f,g,k","red,magenta,orange,black",0.789473684210526,0.650793650793651,0.720133667502089,2.31578947368421,2.41269841269841,2.36424394319131,FALSE,FALSE,FALSE
"44",44,8,"522","false","s","k","ks","s","c","green","c,a,d,f,h,g,l,k","green,brown,cyan,blue,orange,yellow,red,magenta",0.789473684210526,0.650793650793651,0.720133667502089,2.31578947368421,2.41269841269841,2.36424394319131,FALSE,FALSE,FALSE
"45",45,8,"634","false","s","k","ks","s","b","blue","b,c,f,d,g,h,l,k","blue,yellow,cyan,orange,green,black,red,magenta",0.789473684210526,0.650793650793651,0.720133667502089,2.31578947368421,2.41269841269841,2.36424394319131,FALSE,FALSE,FALSE
"46",46,4,"608","true","s","s","ks","d","e","yellow","c,e,h,j","red,blue,magenta,green",0.789473684210526,0.650793650793651,0.720133667502089,2.31578947368421,2.41269841269841,2.36424394319131,FALSE,FALSE,FALSE
"47",47,4,"587","true","s","s","ks","d","b","red","b,f,g,j","blue,yellow,brown,orange",0.789473684210526,0.650793650793651,0.720133667502089,2.31578947368421,2.41269841269841,2.36424394319131,FALSE,FALSE,FALSE
"48",48,8,"494","true","s","s","ks","d","b","yellow","c,b,e,d,i,g,k,l","blue,green,brown,red,cyan,orange,black,magenta",0.789473684210526,0.650793650793651,0.720133667502089,2.31578947368421,2.41269841269841,2.36424394319131,FALSE,FALSE,FALSE
"49",49,4,"558","true","s","s","ks","d","e","yellow","a,e,h,j","red,blue,magenta,cyan",0.789473684210526,0.650793650793651,0.720133667502089,2.31578947368421,2.41269841269841,2.36424394319131,FALSE,FALSE,FALSE
"50",50,8,"563","false","s","k","ks","s","g","orange","b,c,f,e,g,h,j,k","yellow,green,magenta,blue,orange,red,brown,black",0.789473684210526,0.650793650793651,0.720133667502089,2.31578947368421,2.41269841269841,2.36424394319131,FALSE,FALSE,FALSE
"51",51,4,"590","false","s","k","ks","s","k","magenta","a,e,i,k","blue,yellow,green,magenta",0.789473684210526,0.650793650793651,0.720133667502089,2.31578947368421,2.41269841269841,2.36424394319131,FALSE,FALSE,FALSE
"52",52,4,"445","true","k","k","ks","s","e","cyan","b,e,g,j","blue,cyan,orange,brown",0.789473684210526,0.650793650793651,0.720133667502089,2.31578947368421,2.41269841269841,2.36424394319131,FALSE,FALSE,FALSE
"53",53,8,"704","false","s","k","ks","s","i","magenta","b,a,f,d,i,g,j,k","yellow,blue,red,brown,magenta,cyan,orange,black",0.789473684210526,0.650793650793651,0.720133667502089,2.31578947368421,2.41269841269841,2.36424394319131,FALSE,FALSE,FALSE
"54",54,4,"507","true","s","s","ks","d","j","yellow","c,e,g,j","magenta,green,black,brown",0.789473684210526,0.650793650793651,0.720133667502089,2.31578947368421,2.41269841269841,2.36424394319131,FALSE,FALSE,FALSE
"55",55,4,"554","true","k","k","ks","s","g","yellow","c,e,g,j","orange,cyan,yellow,green",0.789473684210526,0.650793650793651,0.720133667502089,2.31578947368421,2.41269841269841,2.36424394319131,FALSE,FALSE,FALSE
"56",56,8,"536","true","s","s","ks","d","d","green","b,c,e,d,h,i,k,j","orange,yellow,cyan,brown,blue,red,black,magenta",0.789473684210526,0.650793650793651,0.720133667502089,2.31578947368421,2.41269841269841,2.36424394319131,FALSE,FALSE,FALSE
"57",57,8,"691","true","k","k","ks","s","e","black","a,c,e,f,g,i,l,j","orange,green,black,brown,magenta,red,blue,yellow",0.789473684210526,0.650793650793651,0.720133667502089,2.31578947368421,2.41269841269841,2.36424394319131,FALSE,FALSE,FALSE
"58",58,4,"456","true","s","s","ks","d","b","orange","b,f,g,j","cyan,magenta,brown,black",0.789473684210526,0.650793650793651,0.720133667502089,2.31578947368421,2.41269841269841,2.36424394319131,FALSE,FALSE,FALSE
"59",59,8,"486","true","k","k","ks","s","e","black","c,b,d,e,h,g,l,j","orange,magenta,green,black,cyan,brown,yellow,blue",0.789473684210526,0.650793650793651,0.720133667502089,2.31578947368421,2.41269841269841,2.36424394319131,FALSE,FALSE,FALSE
"60",60,4,"546","true","s","s","ks","d","d","blue","c,d,g,l","green,black,yellow,red",0.789473684210526,0.650793650793651,0.720133667502089,2.31578947368421,2.41269841269841,2.36424394319131,FALSE,FALSE,FALSE
"61",61,4,"475","true","s","s","ks","d","e","blue","c,e,g,k","magenta,yellow,orange,black",0.789473684210526,0.650793650793651,0.720133667502089,2.31578947368421,2.41269841269841,2.36424394319131,FALSE,FALSE,FALSE
"62",62,8,"427","false","s","k","ks","s","j","green","b,c,d,e,h,g,l,j","cyan,black,brown,red,yellow,magenta,blue,green",0.789473684210526,0.650793650793651,0.720133667502089,2.31578947368421,2.41269841269841,2.36424394319131,FALSE,FALSE,FALSE
"63",63,4,"561","true","k","k","ks","s","k","black","a,d,h,k","red,orange,green,black",0.789473684210526,0.650793650793651,0.720133667502089,2.31578947368421,2.41269841269841,2.36424394319131,FALSE,FALSE,FALSE
"64",64,4,"399","true","k","k","ks","s","f","black","a,f,i,l","brown,black,cyan,red",0.789473684210526,0.650793650793651,0.720133667502089,2.31578947368421,2.41269841269841,2.36424394319131,FALSE,FALSE,FALSE
"65",65,4,"376","true","k","k","ks","s","e","magenta","a,e,i,k","cyan,magenta,green,blue",0.789473684210526,0.650793650793651,0.720133667502089,2.31578947368421,2.41269841269841,2.36424394319131,FALSE,FALSE,FALSE
"66",66,4,"403","true","k","k","ks","s","b","magenta","b,d,i,k","magenta,cyan,yellow,red",0.789473684210526,0.650793650793651,0.720133667502089,2.31578947368421,2.41269841269841,2.36424394319131,FALSE,FALSE,FALSE
"67",67,8,"351","true","s","s","ks","d","l","black","b,a,d,f,i,h,j,l","red,yellow,green,blue,magenta,brown,orange,cyan",0.789473684210526,0.650793650793651,0.720133667502089,2.31578947368421,2.41269841269841,2.36424394319131,FALSE,FALSE,FALSE
"68",68,4,"338","false","s","k","ks","s","l","orange","b,e,h,l","black,brown,magenta,orange",0.789473684210526,0.650793650793651,0.720133667502089,2.31578947368421,2.41269841269841,2.36424394319131,FALSE,FALSE,FALSE
"69",69,8,"478","true","s","s","ks","d","e","red","c,a,e,f,i,g,l,k","brown,green,black,orange,yellow,cyan,blue,magenta",0.789473684210526,0.650793650793651,0.720133667502089,2.31578947368421,2.41269841269841,2.36424394319131,FALSE,FALSE,FALSE
"70",70,4,"522","true","s","s","ks","d","f","black","a,f,g,j","blue,yellow,cyan,magenta",0.789473684210526,0.650793650793651,0.720133667502089,2.31578947368421,2.41269841269841,2.36424394319131,FALSE,FALSE,FALSE
"71",71,8,"812","true","k","k","ks","s","d","brown","c,b,d,e,g,i,k,l","red,blue,brown,orange,yellow,cyan,green,magenta",0.789473684210526,0.650793650793651,0.720133667502089,2.31578947368421,2.41269841269841,2.36424394319131,FALSE,FALSE,FALSE
"72",72,8,"439","false","s","k","ks","s","k","cyan","a,c,d,f,i,h,j,k","red,yellow,black,green,brown,orange,magenta,cyan",0.789473684210526,0.650793650793651,0.720133667502089,2.31578947368421,2.41269841269841,2.36424394319131,FALSE,FALSE,FALSE
"73",73,8,"521","true","s","s","ks","d","e","orange","b,a,e,f,h,g,j,k","magenta,red,brown,green,black,blue,yellow,cyan",0.789473684210526,0.650793650793651,0.720133667502089,2.31578947368421,2.41269841269841,2.36424394319131,FALSE,FALSE,FALSE
"74",74,8,"686","false","k","s","ks","d","b","orange","a,b,e,f,h,i,l,j","green,black,red,magenta,yellow,brown,blue,cyan",0.789473684210526,0.650793650793651,0.720133667502089,2.31578947368421,2.41269841269841,2.36424394319131,FALSE,FALSE,FALSE
"75",75,8,"593","true","k","k","ks","s","d","cyan","b,a,d,f,i,g,l,k","magenta,brown,cyan,orange,blue,yellow,red,black",0.789473684210526,0.650793650793651,0.720133667502089,2.31578947368421,2.41269841269841,2.36424394319131,FALSE,FALSE,FALSE
"76",76,4,"696","true","k","k","ks","s","b","red","b,e,g,j","red,orange,cyan,green",0.789473684210526,0.650793650793651,0.720133667502089,2.31578947368421,2.41269841269841,2.36424394319131,FALSE,FALSE,FALSE
"77",77,4,"598","true","s","s","ks","d","b","red","b,d,h,l","black,green,cyan,magenta",0.789473684210526,0.650793650793651,0.720133667502089,2.31578947368421,2.41269841269841,2.36424394319131,FALSE,FALSE,FALSE
"78",78,8,"498","true","k","k","ks","s","b","red","c,b,d,f,i,g,l,k","black,red,green,brown,orange,cyan,magenta,blue",0.789473684210526,0.650793650793651,0.720133667502089,2.31578947368421,2.41269841269841,2.36424394319131,FALSE,FALSE,FALSE
"79",79,4,"786","true","k","k","ks","s","b","brown","b,d,g,j","brown,magenta,blue,orange",0.789473684210526,0.650793650793651,0.720133667502089,2.31578947368421,2.41269841269841,2.36424394319131,FALSE,FALSE,FALSE
"80",80,4,"494","true","s","s","ks","d","b","blue","b,d,h,k","yellow,green,magenta,black",0.789473684210526,0.650793650793651,0.720133667502089,2.31578947368421,2.41269841269841,2.36424394319131,FALSE,FALSE,FALSE
"81",81,8,"653","true","k","k","ks","s","f","brown","a,b,f,d,g,i,k,l","black,magenta,brown,blue,red,orange,cyan,green",0.789473684210526,0.650793650793651,0.720133667502089,2.31578947368421,2.41269841269841,2.36424394319131,FALSE,FALSE,FALSE
"82",82,8,"596","false","s","k","ks","s","j","black","a,c,e,f,h,i,j,l","blue,magenta,yellow,cyan,green,red,black,brown",0.789473684210526,0.650793650793651,0.720133667502089,2.31578947368421,2.41269841269841,2.36424394319131,FALSE,FALSE,FALSE
"83",83,8,"515","false","k","s","ks","d","k","magenta","a,c,e,f,g,i,k,l","yellow,green,red,blue,brown,black,orange,cyan",0.789473684210526,0.650793650793651,0.720133667502089,2.31578947368421,2.41269841269841,2.36424394319131,FALSE,FALSE,FALSE
"84",84,8,"639","true","s","s","ks","d","d","brown","a,b,d,f,h,g,k,j","black,blue,orange,magenta,green,red,cyan,yellow",0.789473684210526,0.650793650793651,0.720133667502089,2.31578947368421,2.41269841269841,2.36424394319131,FALSE,FALSE,FALSE
"85",85,8,"685","true","k","k","ks","s","f","black","b,a,f,d,i,h,k,l","green,cyan,black,orange,brown,yellow,blue,red",0.789473684210526,0.650793650793651,0.720133667502089,2.31578947368421,2.41269841269841,2.36424394319131,FALSE,FALSE,FALSE
"86",86,8,"582","true","s","s","ks","d","i","black","b,a,f,d,h,i,k,l","green,brown,red,cyan,yellow,blue,orange,magenta",0.789473684210526,0.650793650793651,0.720133667502089,2.31578947368421,2.41269841269841,2.36424394319131,FALSE,FALSE,FALSE
"87",87,4,"495","true","s","s","ks","d","b","red","b,d,h,j","brown,cyan,black,magenta",0.789473684210526,0.650793650793651,0.720133667502089,2.31578947368421,2.41269841269841,2.36424394319131,FALSE,FALSE,FALSE
"88",88,4,"534","false","s","k","ks","s","d","yellow","b,d,g,k","black,yellow,brown,magenta",0.789473684210526,0.650793650793651,0.720133667502089,2.31578947368421,2.41269841269841,2.36424394319131,FALSE,FALSE,FALSE
"89",89,8,"436","true","s","s","ks","d","g","brown","c,b,e,f,g,h,k,l","cyan,yellow,black,green,blue,magenta,red,orange",0.789473684210526,0.650793650793651,0.720133667502089,2.31578947368421,2.41269841269841,2.36424394319131,FALSE,FALSE,FALSE
"90",90,4,"503","false","s","k","ks","s","k","yellow","c,d,i,k","green,blue,red,yellow",0.789473684210526,0.650793650793651,0.720133667502089,2.31578947368421,2.41269841269841,2.36424394319131,FALSE,FALSE,FALSE
"91",91,8,"566","true","s","s","ks","d","j","blue","c,a,e,d,h,i,l,j","magenta,cyan,brown,green,orange,yellow,red,black",0.789473684210526,0.650793650793651,0.720133667502089,2.31578947368421,2.41269841269841,2.36424394319131,FALSE,FALSE,FALSE
"92",92,8,"743","false","k","s","ks","d","f","brown","b,a,e,f,i,h,k,j","black,cyan,green,red,yellow,blue,orange,magenta",0.789473684210526,0.650793650793651,0.720133667502089,2.31578947368421,2.41269841269841,2.36424394319131,FALSE,FALSE,FALSE
"93",93,8,"500","true","s","s","ks","d","i","green","a,c,f,e,h,i,j,l","blue,black,orange,red,yellow,magenta,cyan,brown",0.789473684210526,0.650793650793651,0.720133667502089,2.31578947368421,2.41269841269841,2.36424394319131,FALSE,FALSE,FALSE
"94",94,8,"472","true","s","s","ks","d","j","orange","c,a,e,f,i,h,j,k","yellow,cyan,red,green,brown,magenta,blue,black",0.789473684210526,0.650793650793651,0.720133667502089,2.31578947368421,2.41269841269841,2.36424394319131,FALSE,FALSE,FALSE
"95",95,8,"588","false","s","k","ks","s","d","cyan","c,b,f,d,i,h,j,l","magenta,green,yellow,cyan,black,blue,red,brown",0.789473684210526,0.650793650793651,0.720133667502089,2.31578947368421,2.41269841269841,2.36424394319131,FALSE,FALSE,FALSE
"96",96,4,"614","true","k","k","ks","s","c","black","c,d,i,l","black,yellow,orange,red",0.789473684210526,0.650793650793651,0.720133667502089,2.31578947368421,2.41269841269841,2.36424394319131,FALSE,FALSE,FALSE
"97",97,4,"549","false","k","s","ks","d","a","red","a,e,g,k","orange,green,cyan,blue",0.789473684210526,0.650793650793651,0.720133667502089,2.31578947368421,2.41269841269841,2.36424394319131,FALSE,FALSE,FALSE
"98",98,4,"481","true","s","s","ks","d","l","green","c,e,i,l","orange,black,brown,red",0.789473684210526,0.650793650793651,0.720133667502089,2.31578947368421,2.41269841269841,2.36424394319131,FALSE,FALSE,FALSE
"99",99,8,"700","true","s","s","ks","d","b","green","b,a,d,f,i,g,j,l","yellow,brown,magenta,red,blue,orange,cyan,black",0.789473684210526,0.650793650793651,0.720133667502089,2.31578947368421,2.41269841269841,2.36424394319131,FALSE,FALSE,FALSE
"100",100,4,"567","false","s","k","ks","s","i","magenta","c,e,i,j","blue,yellow,magenta,black",0.789473684210526,0.650793650793651,0.720133667502089,2.31578947368421,2.41269841269841,2.36424394319131,FALSE,FALSE,FALSE
"101",101,4,"579","true","s","s","ks","d","i","brown","c,f,i,k","red,yellow,blue,magenta",0.789473684210526,0.650793650793651,0.720133667502089,2.31578947368421,2.41269841269841,2.36424394319131,FALSE,FALSE,FALSE
"102",102,4,"581","true","k","k","ks","s","g","cyan","a,f,g,k","blue,red,cyan,yellow",0.789473684210526,0.650793650793651,0.720133667502089,2.31578947368421,2.41269841269841,2.36424394319131,FALSE,FALSE,FALSE
"103",103,8,"524","true","s","s","ks","d","l","orange","a,c,d,e,h,i,l,k","black,cyan,magenta,yellow,blue,red,green,brown",0.789473684210526,0.650793650793651,0.720133667502089,2.31578947368421,2.41269841269841,2.36424394319131,FALSE,FALSE,FALSE
"104",104,4,"492","true","s","s","ks","d","f","magenta","b,f,h,j","black,brown,orange,green",0.789473684210526,0.650793650793651,0.720133667502089,2.31578947368421,2.41269841269841,2.36424394319131,FALSE,FALSE,FALSE
"105",105,8,"422","false","k","s","ks","d","h","blue","b,c,f,d,g,h,k,l","black,cyan,green,orange,red,magenta,yellow,brown",0.789473684210526,0.650793650793651,0.720133667502089,2.31578947368421,2.41269841269841,2.36424394319131,FALSE,FALSE,FALSE
"106",106,4,"648","true","k","k","ks","s","d","blue","a,d,g,k","brown,blue,yellow,black",0.789473684210526,0.650793650793651,0.720133667502089,2.31578947368421,2.41269841269841,2.36424394319131,FALSE,FALSE,FALSE
"107",107,8,"514","true","s","s","ks","d","j","red","a,c,f,d,g,h,j,k","orange,cyan,green,brown,magenta,blue,yellow,black",0.789473684210526,0.650793650793651,0.720133667502089,2.31578947368421,2.41269841269841,2.36424394319131,FALSE,FALSE,FALSE
"108",108,4,"859","true","k","k","ks","s","d","magenta","b,d,g,l","brown,magenta,blue,red",0.789473684210526,0.650793650793651,0.720133667502089,2.31578947368421,2.41269841269841,2.36424394319131,FALSE,FALSE,FALSE
"109",109,4,"920","true","s","s","ks","d","h","black","b,d,h,k","cyan,red,magenta,green",0.789473684210526,0.650793650793651,0.720133667502089,2.31578947368421,2.41269841269841,2.36424394319131,FALSE,FALSE,FALSE
"110",110,4,"856","false","s","k","ks","s","k","magenta","b,e,g,k","orange,black,green,magenta",0.789473684210526,0.650793650793651,0.720133667502089,2.31578947368421,2.41269841269841,2.36424394319131,FALSE,FALSE,FALSE
"111",111,8,"1037","false","k","s","ks","d","j","green","b,a,f,e,h,g,j,l","orange,brown,red,yellow,black,blue,cyan,magenta",0.789473684210526,0.650793650793651,0.720133667502089,2.31578947368421,2.41269841269841,2.36424394319131,FALSE,FALSE,FALSE
"112",112,4,"1153","false","s","k","ks","s","a","green","a,f,g,j","green,cyan,red,blue",0.789473684210526,0.650793650793651,0.720133667502089,2.31578947368421,2.41269841269841,2.36424394319131,FALSE,FALSE,FALSE
"113",113,8,"950","false","s","k","ks","s","d","orange","b,c,d,e,g,h,l,j","black,magenta,orange,brown,red,cyan,yellow,green",0.789473684210526,0.650793650793651,0.720133667502089,2.31578947368421,2.41269841269841,2.36424394319131,FALSE,FALSE,FALSE
"114",114,8,"1047","true","s","s","ks","d","k","black","b,c,f,e,i,g,j,k","yellow,cyan,red,orange,green,magenta,blue,brown",0.789473684210526,0.650793650793651,0.720133667502089,2.31578947368421,2.41269841269841,2.36424394319131,FALSE,FALSE,FALSE
"115",115,8,"856","true","s","s","ks","d","h","blue","b,a,f,e,h,g,l,k","cyan,orange,brown,green,black,magenta,yellow,red",0.789473684210526,0.650793650793651,0.720133667502089,2.31578947368421,2.41269841269841,2.36424394319131,FALSE,FALSE,FALSE
"116",116,4,"932","false","s","k","ks","s","b","orange","b,f,g,k","orange,green,cyan,black",0.789473684210526,0.650793650793651,0.720133667502089,2.31578947368421,2.41269841269841,2.36424394319131,FALSE,FALSE,FALSE
"117",117,4,"824","true","s","s","ks","d","d","green","c,d,h,j","brown,red,magenta,orange",0.789473684210526,0.650793650793651,0.720133667502089,2.31578947368421,2.41269841269841,2.36424394319131,FALSE,FALSE,FALSE
"118",118,4,"813","true","s","s","ks","d","h","green","b,e,h,l","orange,yellow,blue,brown",0.789473684210526,0.650793650793651,0.720133667502089,2.31578947368421,2.41269841269841,2.36424394319131,FALSE,FALSE,FALSE
"119",119,8,"1286","true","k","k","ks","s","f","cyan","b,a,d,f,h,g,j,k","yellow,green,black,cyan,magenta,brown,orange,red",0.789473684210526,0.650793650793651,0.720133667502089,2.31578947368421,2.41269841269841,2.36424394319131,FALSE,FALSE,FALSE
"120",120,4,"809","false","s","k","ks","s","i","magenta","b,d,i,l","blue,orange,magenta,brown",0.789473684210526,0.650793650793651,0.720133667502089,2.31578947368421,2.41269841269841,2.36424394319131,FALSE,FALSE,FALSE
"121",1,4,"721","true","k","k","ks","s","i","yellow","a,f,i,j","black,magenta,yellow,red",0.792452830188679,0.626865671641791,0.709659250915235,2.33962264150943,2.02985074626866,2.18473669388905,FALSE,FALSE,FALSE
"122",2,4,"439","true","k","k","ks","s","h","brown","b,d,h,k","magenta,cyan,brown,red",0.792452830188679,0.626865671641791,0.709659250915235,2.33962264150943,2.02985074626866,2.18473669388905,FALSE,FALSE,FALSE
"123",3,8,"527","true","k","k","ks","s","g","blue","b,a,f,e,h,g,k,j","brown,cyan,black,orange,green,blue,red,yellow",0.792452830188679,0.626865671641791,0.709659250915235,2.33962264150943,2.02985074626866,2.18473669388905,FALSE,FALSE,FALSE
"124",4,4,"757","false","s","k","ks","s","j","orange","c,f,i,j","cyan,red,black,orange",0.792452830188679,0.626865671641791,0.709659250915235,2.33962264150943,2.02985074626866,2.18473669388905,FALSE,FALSE,FALSE
"125",5,8,"825","true","s","s","ks","d","i","magenta","a,b,e,d,i,h,k,j","red,yellow,brown,black,blue,cyan,green,orange",0.792452830188679,0.626865671641791,0.709659250915235,2.33962264150943,2.02985074626866,2.18473669388905,FALSE,FALSE,FALSE
"126",6,8,"708","false","k","s","ks","d","h","magenta","c,a,e,d,g,h,j,k","cyan,orange,black,green,yellow,brown,red,blue",0.792452830188679,0.626865671641791,0.709659250915235,2.33962264150943,2.02985074626866,2.18473669388905,FALSE,FALSE,FALSE
"127",7,4,"543","true","s","s","ks","d","e","brown","c,e,h,l","black,cyan,green,orange",0.792452830188679,0.626865671641791,0.709659250915235,2.33962264150943,2.02985074626866,2.18473669388905,FALSE,FALSE,FALSE
"128",8,8,"687","false","s","k","ks","s","f","orange","a,b,e,f,i,h,l,j","black,green,brown,orange,cyan,blue,magenta,red",0.792452830188679,0.626865671641791,0.709659250915235,2.33962264150943,2.02985074626866,2.18473669388905,FALSE,FALSE,FALSE
"129",9,4,"685","true","k","k","ks","s","i","orange","a,e,i,j","magenta,blue,orange,brown",0.792452830188679,0.626865671641791,0.709659250915235,2.33962264150943,2.02985074626866,2.18473669388905,FALSE,FALSE,FALSE
"130",10,4,"523","true","s","s","ks","d","f","yellow","b,f,h,j","orange,blue,cyan,magenta",0.792452830188679,0.626865671641791,0.709659250915235,2.33962264150943,2.02985074626866,2.18473669388905,FALSE,FALSE,FALSE
"131",11,8,"562","false","s","k","ks","s","k","orange","b,c,f,e,h,i,k,j","magenta,black,red,brown,blue,green,orange,yellow",0.792452830188679,0.626865671641791,0.709659250915235,2.33962264150943,2.02985074626866,2.18473669388905,FALSE,FALSE,FALSE
"132",12,4,"396","true","k","k","ks","s","i","green","c,f,i,j","cyan,red,green,brown",0.792452830188679,0.626865671641791,0.709659250915235,2.33962264150943,2.02985074626866,2.18473669388905,FALSE,FALSE,FALSE
"133",13,4,"715","false","s","k","ks","s","k","orange","c,f,g,k","magenta,blue,green,orange",0.792452830188679,0.626865671641791,0.709659250915235,2.33962264150943,2.02985074626866,2.18473669388905,FALSE,FALSE,FALSE
"134",14,4,"456","true","k","k","ks","s","a","orange","a,d,i,j","orange,brown,cyan,blue",0.792452830188679,0.626865671641791,0.709659250915235,2.33962264150943,2.02985074626866,2.18473669388905,FALSE,FALSE,FALSE
"135",15,8,"814","true","s","s","ks","d","e","cyan","c,a,d,e,h,i,l,k","yellow,magenta,green,red,brown,blue,orange,black",0.792452830188679,0.626865671641791,0.709659250915235,2.33962264150943,2.02985074626866,2.18473669388905,FALSE,FALSE,FALSE
"136",16,8,"490","true","k","k","ks","s","d","orange","c,a,d,e,i,g,k,l","brown,magenta,orange,red,yellow,blue,green,cyan",0.792452830188679,0.626865671641791,0.709659250915235,2.33962264150943,2.02985074626866,2.18473669388905,FALSE,FALSE,FALSE
"137",17,8,"1046","false","s","k","ks","s","e","brown","a,b,e,d,h,g,j,k","orange,red,brown,yellow,blue,green,black,magenta",0.792452830188679,0.626865671641791,0.709659250915235,2.33962264150943,2.02985074626866,2.18473669388905,FALSE,FALSE,FALSE
"138",18,8,"490","true","s","s","ks","d","c","cyan","c,a,f,d,h,i,k,l","orange,brown,magenta,green,red,blue,black,yellow",0.792452830188679,0.626865671641791,0.709659250915235,2.33962264150943,2.02985074626866,2.18473669388905,FALSE,FALSE,FALSE
"139",19,4,"581","true","s","s","ks","d","e","red","c,e,g,j","brown,orange,yellow,blue",0.792452830188679,0.626865671641791,0.709659250915235,2.33962264150943,2.02985074626866,2.18473669388905,FALSE,FALSE,FALSE
"140",20,8,"539","true","k","k","ks","s","l","cyan","c,b,d,f,h,g,l,j","green,brown,orange,magenta,blue,yellow,cyan,black",0.792452830188679,0.626865671641791,0.709659250915235,2.33962264150943,2.02985074626866,2.18473669388905,FALSE,FALSE,FALSE
"141",21,4,"508","true","k","k","ks","s","e","yellow","b,e,h,k","brown,yellow,red,orange",0.792452830188679,0.626865671641791,0.709659250915235,2.33962264150943,2.02985074626866,2.18473669388905,FALSE,FALSE,FALSE
"142",22,8,"750","true","s","s","ks","d","a","green","a,c,d,e,g,i,j,l","black,yellow,magenta,brown,cyan,red,orange,blue",0.792452830188679,0.626865671641791,0.709659250915235,2.33962264150943,2.02985074626866,2.18473669388905,FALSE,FALSE,FALSE
"143",23,8,"445","true","s","s","ks","d","k","green","c,a,e,f,h,g,k,j","red,blue,magenta,yellow,black,brown,orange,cyan",0.792452830188679,0.626865671641791,0.709659250915235,2.33962264150943,2.02985074626866,2.18473669388905,FALSE,FALSE,FALSE
"144",24,8,"547","true","s","s","ks","d","i","orange","c,b,d,e,i,h,j,l","brown,magenta,blue,red,yellow,cyan,green,black",0.792452830188679,0.626865671641791,0.709659250915235,2.33962264150943,2.02985074626866,2.18473669388905,FALSE,FALSE,FALSE
"145",25,8,"934","true","k","k","ks","s","f","red","b,c,e,f,g,h,k,j","yellow,green,blue,red,magenta,black,orange,brown",0.792452830188679,0.626865671641791,0.709659250915235,2.33962264150943,2.02985074626866,2.18473669388905,FALSE,FALSE,FALSE
"146",26,8,"452","true","k","k","ks","s","g","blue","c,b,e,f,h,g,j,k","black,yellow,orange,red,magenta,blue,green,brown",0.792452830188679,0.626865671641791,0.709659250915235,2.33962264150943,2.02985074626866,2.18473669388905,FALSE,FALSE,FALSE
"147",27,8,"329","false","s","k","ks","s","c","green","b,c,d,f,g,h,k,j","red,green,orange,yellow,cyan,black,brown,blue",0.792452830188679,0.626865671641791,0.709659250915235,2.33962264150943,2.02985074626866,2.18473669388905,FALSE,FALSE,FALSE
"148",28,8,"404","false","s","k","ks","s","a","green","a,b,d,f,g,h,j,l","green,black,brown,yellow,blue,cyan,red,orange",0.792452830188679,0.626865671641791,0.709659250915235,2.33962264150943,2.02985074626866,2.18473669388905,FALSE,FALSE,FALSE
"149",29,4,"482","true","k","k","ks","s","b","black","b,d,h,k","black,magenta,cyan,blue",0.792452830188679,0.626865671641791,0.709659250915235,2.33962264150943,2.02985074626866,2.18473669388905,FALSE,FALSE,FALSE
"150",30,8,"677","true","k","k","ks","s","f","brown","c,b,f,d,h,i,l,j","black,yellow,brown,blue,orange,red,green,cyan",0.792452830188679,0.626865671641791,0.709659250915235,2.33962264150943,2.02985074626866,2.18473669388905,FALSE,FALSE,FALSE
"151",31,4,"527","true","s","s","ks","d","i","orange","c,f,i,j","green,brown,yellow,magenta",0.792452830188679,0.626865671641791,0.709659250915235,2.33962264150943,2.02985074626866,2.18473669388905,FALSE,FALSE,FALSE
"152",32,4,"491","true","s","s","ks","d","k","magenta","a,f,g,k","yellow,orange,black,blue",0.792452830188679,0.626865671641791,0.709659250915235,2.33962264150943,2.02985074626866,2.18473669388905,FALSE,FALSE,FALSE
"153",33,8,"871","true","s","s","ks","d","k","red","b,c,f,e,g,i,l,k","green,cyan,magenta,blue,yellow,brown,black,orange",0.792452830188679,0.626865671641791,0.709659250915235,2.33962264150943,2.02985074626866,2.18473669388905,FALSE,FALSE,FALSE
"154",34,4,"194","true","k","k","ks","s","i","yellow","c,e,i,j","black,brown,yellow,green",0.792452830188679,0.626865671641791,0.709659250915235,2.33962264150943,2.02985074626866,2.18473669388905,FALSE,FALSE,FALSE
"155",35,4,"949","false","s","k","ks","s","h","brown","a,d,h,j","orange,black,brown,cyan",0.792452830188679,0.626865671641791,0.709659250915235,2.33962264150943,2.02985074626866,2.18473669388905,FALSE,FALSE,FALSE
"156",36,4,"404","true","s","s","ks","d","h","black","c,e,h,j","magenta,blue,yellow,red",0.792452830188679,0.626865671641791,0.709659250915235,2.33962264150943,2.02985074626866,2.18473669388905,FALSE,FALSE,FALSE
"157",37,8,"408","true","s","s","ks","d","i","black","a,c,f,d,h,i,l,k","yellow,red,cyan,brown,blue,magenta,orange,green",0.792452830188679,0.626865671641791,0.709659250915235,2.33962264150943,2.02985074626866,2.18473669388905,FALSE,FALSE,FALSE
"158",38,4,"340","true","k","k","ks","s","l","green","b,e,h,l","orange,magenta,blue,green",0.792452830188679,0.626865671641791,0.709659250915235,2.33962264150943,2.02985074626866,2.18473669388905,FALSE,FALSE,FALSE
"159",39,4,"466","true","k","k","ks","s","b","brown","b,d,g,j","brown,green,red,cyan",0.792452830188679,0.626865671641791,0.709659250915235,2.33962264150943,2.02985074626866,2.18473669388905,FALSE,FALSE,FALSE
"160",40,8,"439","true","s","s","ks","d","b","cyan","a,b,e,f,h,g,j,l","brown,green,orange,magenta,black,yellow,blue,red",0.792452830188679,0.626865671641791,0.709659250915235,2.33962264150943,2.02985074626866,2.18473669388905,FALSE,FALSE,FALSE
"161",41,4,"624","true","k","k","ks","s","e","green","a,e,g,l","yellow,green,orange,red",0.792452830188679,0.626865671641791,0.709659250915235,2.33962264150943,2.02985074626866,2.18473669388905,FALSE,FALSE,FALSE
"162",42,8,"541","true","s","s","ks","d","e","blue","c,a,f,e,h,g,j,l","brown,orange,cyan,yellow,green,red,magenta,black",0.792452830188679,0.626865671641791,0.709659250915235,2.33962264150943,2.02985074626866,2.18473669388905,FALSE,FALSE,FALSE
"163",43,8,"387","true","k","k","ks","s","j","orange","c,b,e,f,i,g,k,j","red,green,brown,cyan,blue,yellow,magenta,orange",0.792452830188679,0.626865671641791,0.709659250915235,2.33962264150943,2.02985074626866,2.18473669388905,FALSE,FALSE,FALSE
"164",44,8,"552","true","k","k","ks","s","c","magenta","b,c,d,f,g,i,l,k","brown,magenta,black,blue,yellow,green,orange,red",0.792452830188679,0.626865671641791,0.709659250915235,2.33962264150943,2.02985074626866,2.18473669388905,FALSE,FALSE,FALSE
"165",45,4,"473","true","k","k","ks","s","j","brown","a,e,h,j","red,cyan,blue,brown",0.792452830188679,0.626865671641791,0.709659250915235,2.33962264150943,2.02985074626866,2.18473669388905,FALSE,FALSE,FALSE
"166",46,4,"485","true","k","k","ks","s","d","magenta","b,d,i,k","black,magenta,brown,yellow",0.792452830188679,0.626865671641791,0.709659250915235,2.33962264150943,2.02985074626866,2.18473669388905,FALSE,FALSE,FALSE
"167",47,8,"494","false","k","s","ks","d","a","black","a,c,d,e,h,g,l,k","green,blue,cyan,orange,yellow,brown,magenta,red",0.792452830188679,0.626865671641791,0.709659250915235,2.33962264150943,2.02985074626866,2.18473669388905,FALSE,FALSE,FALSE
"168",48,8,"615","true","k","k","ks","s","j","green","a,b,f,d,g,i,j,l","cyan,magenta,blue,brown,red,black,green,yellow",0.792452830188679,0.626865671641791,0.709659250915235,2.33962264150943,2.02985074626866,2.18473669388905,FALSE,FALSE,FALSE
"169",49,8,"651","true","k","k","ks","s","b","orange","b,c,d,e,g,h,j,k","orange,yellow,brown,red,green,magenta,cyan,black",0.792452830188679,0.626865671641791,0.709659250915235,2.33962264150943,2.02985074626866,2.18473669388905,FALSE,FALSE,FALSE
"170",50,8,"442","true","s","s","ks","d","a","magenta","b,a,f,d,i,h,l,j","green,blue,yellow,brown,cyan,black,red,orange",0.792452830188679,0.626865671641791,0.709659250915235,2.33962264150943,2.02985074626866,2.18473669388905,FALSE,FALSE,FALSE
"171",51,8,"819","true","k","k","ks","s","f","black","b,c,e,f,g,h,j,k","yellow,red,green,black,cyan,orange,magenta,brown",0.792452830188679,0.626865671641791,0.709659250915235,2.33962264150943,2.02985074626866,2.18473669388905,FALSE,FALSE,FALSE
"172",52,4,"399","true","k","k","ks","s","f","blue","a,f,h,k","brown,blue,black,yellow",0.792452830188679,0.626865671641791,0.709659250915235,2.33962264150943,2.02985074626866,2.18473669388905,FALSE,FALSE,FALSE
"173",53,8,"364","true","k","k","ks","s","h","orange","a,c,d,f,g,h,j,k","cyan,brown,magenta,green,blue,orange,yellow,red",0.792452830188679,0.626865671641791,0.709659250915235,2.33962264150943,2.02985074626866,2.18473669388905,FALSE,FALSE,FALSE
"174",54,8,"499","true","k","k","ks","s","a","red","b,a,f,e,h,i,k,l","blue,red,magenta,yellow,brown,green,black,cyan",0.792452830188679,0.626865671641791,0.709659250915235,2.33962264150943,2.02985074626866,2.18473669388905,FALSE,FALSE,FALSE
"175",55,8,"585","true","s","s","ks","d","f","yellow","c,a,f,d,i,g,l,j","orange,cyan,black,blue,red,magenta,brown,green",0.792452830188679,0.626865671641791,0.709659250915235,2.33962264150943,2.02985074626866,2.18473669388905,FALSE,FALSE,FALSE
"176",56,8,"753","true","s","s","ks","d","l","black","b,c,d,e,g,i,l,j","red,orange,cyan,blue,magenta,brown,yellow,green",0.792452830188679,0.626865671641791,0.709659250915235,2.33962264150943,2.02985074626866,2.18473669388905,FALSE,FALSE,FALSE
"177",57,8,"416","true","s","s","ks","d","b","black","a,b,d,e,h,i,l,k","blue,red,orange,magenta,cyan,brown,yellow,green",0.792452830188679,0.626865671641791,0.709659250915235,2.33962264150943,2.02985074626866,2.18473669388905,FALSE,FALSE,FALSE
"178",58,8,"469","false","s","k","ks","s","b","magenta","c,b,f,d,h,g,k,l","brown,magenta,yellow,blue,black,red,orange,cyan",0.792452830188679,0.626865671641791,0.709659250915235,2.33962264150943,2.02985074626866,2.18473669388905,FALSE,FALSE,FALSE
"179",59,4,"1050","false","s","k","ks","s","c","cyan","c,d,i,l","cyan,red,green,brown",0.792452830188679,0.626865671641791,0.709659250915235,2.33962264150943,2.02985074626866,2.18473669388905,FALSE,FALSE,FALSE
"180",60,4,"413","true","k","k","ks","s","d","magenta","a,d,h,l","orange,magenta,brown,black",0.792452830188679,0.626865671641791,0.709659250915235,2.33962264150943,2.02985074626866,2.18473669388905,FALSE,FALSE,FALSE
"181",61,8,"361","true","k","k","ks","s","c","brown","c,b,e,d,h,i,k,l","brown,magenta,red,blue,yellow,black,orange,green",0.792452830188679,0.626865671641791,0.709659250915235,2.33962264150943,2.02985074626866,2.18473669388905,FALSE,FALSE,FALSE
"182",62,4,"734","true","k","k","ks","s","j","black","c,e,g,j","yellow,magenta,orange,black",0.792452830188679,0.626865671641791,0.709659250915235,2.33962264150943,2.02985074626866,2.18473669388905,FALSE,FALSE,FALSE
"183",63,4,"482","true","k","k","ks","s","j","cyan","c,e,h,j","blue,green,red,cyan",0.792452830188679,0.626865671641791,0.709659250915235,2.33962264150943,2.02985074626866,2.18473669388905,FALSE,FALSE,FALSE
"184",64,8,"516","true","k","k","ks","s","k","cyan","a,c,e,d,h,i,k,j","blue,black,green,brown,red,magenta,cyan,orange",0.792452830188679,0.626865671641791,0.709659250915235,2.33962264150943,2.02985074626866,2.18473669388905,FALSE,FALSE,FALSE
"185",65,4,"451","true","k","k","ks","s","g","orange","c,d,g,j","brown,cyan,orange,blue",0.792452830188679,0.626865671641791,0.709659250915235,2.33962264150943,2.02985074626866,2.18473669388905,FALSE,FALSE,FALSE
"186",66,8,"577","true","s","s","ks","d","l","magenta","c,b,d,f,h,g,k,l","black,red,blue,green,yellow,brown,cyan,orange",0.792452830188679,0.626865671641791,0.709659250915235,2.33962264150943,2.02985074626866,2.18473669388905,FALSE,FALSE,FALSE
"187",67,8,"359","false","k","s","ks","d","g","orange","a,b,e,f,g,h,k,l","black,brown,blue,cyan,yellow,red,green,magenta",0.792452830188679,0.626865671641791,0.709659250915235,2.33962264150943,2.02985074626866,2.18473669388905,FALSE,FALSE,FALSE
"188",68,4,"596","false","s","k","ks","s","f","magenta","c,f,i,j","red,magenta,brown,yellow",0.792452830188679,0.626865671641791,0.709659250915235,2.33962264150943,2.02985074626866,2.18473669388905,FALSE,FALSE,FALSE
"189",69,8,"394","true","k","k","ks","s","i","blue","b,a,d,e,g,i,k,j","cyan,brown,green,red,yellow,blue,black,orange",0.792452830188679,0.626865671641791,0.709659250915235,2.33962264150943,2.02985074626866,2.18473669388905,FALSE,FALSE,FALSE
"190",70,4,"610","true","s","s","ks","d","l","green","a,f,h,l","brown,red,black,blue",0.792452830188679,0.626865671641791,0.709659250915235,2.33962264150943,2.02985074626866,2.18473669388905,FALSE,FALSE,FALSE
"191",71,8,"724","true","s","s","ks","d","j","green","c,a,f,e,i,h,k,j","cyan,orange,red,black,magenta,brown,yellow,blue",0.792452830188679,0.626865671641791,0.709659250915235,2.33962264150943,2.02985074626866,2.18473669388905,FALSE,FALSE,FALSE
"192",72,4,"461","true","s","s","ks","d","c","red","c,e,h,j","magenta,blue,green,cyan",0.792452830188679,0.626865671641791,0.709659250915235,2.33962264150943,2.02985074626866,2.18473669388905,FALSE,FALSE,FALSE
"193",73,8,"804","false","s","k","ks","s","e","red","c,a,e,d,g,i,k,j","brown,green,red,yellow,black,orange,cyan,blue",0.792452830188679,0.626865671641791,0.709659250915235,2.33962264150943,2.02985074626866,2.18473669388905,FALSE,FALSE,FALSE
"194",74,8,"634","false","s","k","ks","s","f","yellow","a,b,f,e,i,g,j,l","red,brown,yellow,magenta,blue,black,green,cyan",0.792452830188679,0.626865671641791,0.709659250915235,2.33962264150943,2.02985074626866,2.18473669388905,FALSE,FALSE,FALSE
"195",75,4,"526","true","s","s","ks","d","d","green","a,d,i,j","cyan,black,red,magenta",0.792452830188679,0.626865671641791,0.709659250915235,2.33962264150943,2.02985074626866,2.18473669388905,FALSE,FALSE,FALSE
"196",76,8,"748","false","k","s","ks","d","e","blue","c,a,e,d,i,g,j,l","yellow,orange,cyan,magenta,black,green,red,brown",0.792452830188679,0.626865671641791,0.709659250915235,2.33962264150943,2.02985074626866,2.18473669388905,FALSE,FALSE,FALSE
"197",77,8,"815","false","k","s","ks","d","l","brown","a,c,d,f,i,h,k,l","orange,yellow,red,green,cyan,magenta,blue,black",0.792452830188679,0.626865671641791,0.709659250915235,2.33962264150943,2.02985074626866,2.18473669388905,FALSE,FALSE,FALSE
"198",78,8,"519","true","s","s","ks","d","k","red","a,c,e,d,i,g,j,k","green,cyan,brown,blue,orange,magenta,black,yellow",0.792452830188679,0.626865671641791,0.709659250915235,2.33962264150943,2.02985074626866,2.18473669388905,FALSE,FALSE,FALSE
"199",79,4,"585","true","k","k","ks","s","a","blue","a,f,h,k","blue,magenta,green,red",0.792452830188679,0.626865671641791,0.709659250915235,2.33962264150943,2.02985074626866,2.18473669388905,FALSE,FALSE,FALSE
"200",80,8,"906","false","s","k","ks","s","g","cyan","b,a,d,e,h,g,j,k","magenta,yellow,red,green,blue,cyan,black,orange",0.792452830188679,0.626865671641791,0.709659250915235,2.33962264150943,2.02985074626866,2.18473669388905,FALSE,FALSE,FALSE
"201",81,4,"536","false","s","k","ks","s","g","magenta","b,e,g,j","green,blue,magenta,cyan",0.792452830188679,0.626865671641791,0.709659250915235,2.33962264150943,2.02985074626866,2.18473669388905,FALSE,FALSE,FALSE
"202",82,8,"717","true","k","k","ks","s","f","green","b,a,e,f,g,h,k,j","red,cyan,orange,green,yellow,magenta,brown,blue",0.792452830188679,0.626865671641791,0.709659250915235,2.33962264150943,2.02985074626866,2.18473669388905,FALSE,FALSE,FALSE
"203",83,8,"547","true","s","s","ks","d","i","cyan","b,a,d,f,i,h,k,j","red,orange,magenta,yellow,black,blue,brown,green",0.792452830188679,0.626865671641791,0.709659250915235,2.33962264150943,2.02985074626866,2.18473669388905,FALSE,FALSE,FALSE
"204",84,4,"398","true","s","s","ks","d","c","brown","c,f,i,k","magenta,cyan,orange,black",0.792452830188679,0.626865671641791,0.709659250915235,2.33962264150943,2.02985074626866,2.18473669388905,FALSE,FALSE,FALSE
"205",85,8,"616","false","s","k","ks","s","j","red","b,a,f,e,h,g,k,j","blue,cyan,brown,green,orange,yellow,magenta,red",0.792452830188679,0.626865671641791,0.709659250915235,2.33962264150943,2.02985074626866,2.18473669388905,FALSE,FALSE,FALSE
"206",86,8,"456","true","s","s","ks","d","k","blue","c,a,e,f,h,i,l,k","red,magenta,yellow,orange,brown,green,black,cyan",0.792452830188679,0.626865671641791,0.709659250915235,2.33962264150943,2.02985074626866,2.18473669388905,FALSE,FALSE,FALSE
"207",87,8,"789","false","k","s","ks","d","k","blue","b,a,d,f,h,g,k,j","green,red,cyan,orange,yellow,brown,black,magenta",0.792452830188679,0.626865671641791,0.709659250915235,2.33962264150943,2.02985074626866,2.18473669388905,FALSE,FALSE,FALSE
"208",88,4,"647","false","k","s","ks","d","f","cyan","a,f,h,k","black,yellow,blue,magenta",0.792452830188679,0.626865671641791,0.709659250915235,2.33962264150943,2.02985074626866,2.18473669388905,FALSE,FALSE,FALSE
"209",89,8,"705","true","s","s","ks","d","d","red","b,c,d,f,h,g,k,l","cyan,black,yellow,blue,magenta,orange,green,brown",0.792452830188679,0.626865671641791,0.709659250915235,2.33962264150943,2.02985074626866,2.18473669388905,FALSE,FALSE,FALSE
"210",90,4,"443","true","s","s","ks","d","e","green","c,e,h,l","blue,brown,red,black",0.792452830188679,0.626865671641791,0.709659250915235,2.33962264150943,2.02985074626866,2.18473669388905,FALSE,FALSE,FALSE
"211",91,4,"441","false","s","k","ks","s","g","yellow","c,f,g,k","blue,green,yellow,black",0.792452830188679,0.626865671641791,0.709659250915235,2.33962264150943,2.02985074626866,2.18473669388905,FALSE,FALSE,FALSE
"212",92,8,"763","true","k","k","ks","s","f","black","b,c,d,f,h,g,k,j","yellow,red,cyan,black,green,orange,brown,magenta",0.792452830188679,0.626865671641791,0.709659250915235,2.33962264150943,2.02985074626866,2.18473669388905,FALSE,FALSE,FALSE
"213",93,4,"384","true","k","k","ks","s","d","yellow","c,d,h,l","black,yellow,green,blue",0.792452830188679,0.626865671641791,0.709659250915235,2.33962264150943,2.02985074626866,2.18473669388905,FALSE,FALSE,FALSE
"214",94,4,"410","false","s","k","ks","s","i","red","b,e,i,k","black,yellow,red,magenta",0.792452830188679,0.626865671641791,0.709659250915235,2.33962264150943,2.02985074626866,2.18473669388905,FALSE,FALSE,FALSE
"215",95,4,"507","true","k","k","ks","s","c","green","c,f,i,k","green,cyan,brown,red",0.792452830188679,0.626865671641791,0.709659250915235,2.33962264150943,2.02985074626866,2.18473669388905,FALSE,FALSE,FALSE
"216",96,8,"430","true","s","s","ks","d","h","cyan","a,c,f,d,h,i,j,k","yellow,green,red,orange,magenta,black,brown,blue",0.792452830188679,0.626865671641791,0.709659250915235,2.33962264150943,2.02985074626866,2.18473669388905,FALSE,FALSE,FALSE
"217",97,8,"987","true","s","s","ks","d","i","orange","c,b,d,f,g,i,l,k","brown,blue,red,yellow,cyan,black,magenta,green",0.792452830188679,0.626865671641791,0.709659250915235,2.33962264150943,2.02985074626866,2.18473669388905,FALSE,FALSE,FALSE
"218",98,8,"625","false","k","s","ks","d","e","red","a,b,f,e,h,i,j,k","orange,green,yellow,black,cyan,blue,magenta,brown",0.792452830188679,0.626865671641791,0.709659250915235,2.33962264150943,2.02985074626866,2.18473669388905,FALSE,FALSE,FALSE
"219",99,4,"432","true","s","s","ks","d","e","cyan","c,e,h,j","orange,yellow,brown,black",0.792452830188679,0.626865671641791,0.709659250915235,2.33962264150943,2.02985074626866,2.18473669388905,FALSE,FALSE,FALSE
"220",100,8,"486","false","k","s","ks","d","a","yellow","a,c,f,d,g,h,j,l","red,blue,cyan,black,brown,green,orange,magenta",0.792452830188679,0.626865671641791,0.709659250915235,2.33962264150943,2.02985074626866,2.18473669388905,FALSE,FALSE,FALSE
"221",101,4,"518","true","s","s","ks","d","j","cyan","a,d,i,j","yellow,green,orange,red",0.792452830188679,0.626865671641791,0.709659250915235,2.33962264150943,2.02985074626866,2.18473669388905,FALSE,FALSE,FALSE
"222",102,4,"760","false","k","s","ks","d","f","green","c,f,i,j","magenta,red,cyan,yellow",0.792452830188679,0.626865671641791,0.709659250915235,2.33962264150943,2.02985074626866,2.18473669388905,FALSE,FALSE,FALSE
"223",103,8,"827","false","k","s","ks","d","h","cyan","b,c,f,e,i,h,j,l","orange,red,black,green,brown,yellow,blue,magenta",0.792452830188679,0.626865671641791,0.709659250915235,2.33962264150943,2.02985074626866,2.18473669388905,FALSE,FALSE,FALSE
"224",104,4,"543","true","s","s","ks","d","l","yellow","a,d,g,l","brown,black,orange,blue",0.792452830188679,0.626865671641791,0.709659250915235,2.33962264150943,2.02985074626866,2.18473669388905,FALSE,FALSE,FALSE
"225",105,8,"574","false","k","s","ks","d","e","yellow","a,c,f,e,i,h,k,l","green,blue,magenta,red,orange,cyan,black,brown",0.792452830188679,0.626865671641791,0.709659250915235,2.33962264150943,2.02985074626866,2.18473669388905,FALSE,FALSE,FALSE
"226",106,8,"537","false","s","k","ks","s","b","red","a,b,d,e,g,h,k,l","yellow,red,green,magenta,orange,blue,black,cyan",0.792452830188679,0.626865671641791,0.709659250915235,2.33962264150943,2.02985074626866,2.18473669388905,FALSE,FALSE,FALSE
"227",107,8,"484","false","k","s","ks","d","j","magenta","a,b,d,f,h,g,j,l","green,black,brown,red,yellow,orange,cyan,blue",0.792452830188679,0.626865671641791,0.709659250915235,2.33962264150943,2.02985074626866,2.18473669388905,FALSE,FALSE,FALSE
"228",108,8,"745","false","s","k","ks","s","l","brown","a,b,d,f,h,i,k,l","cyan,orange,black,magenta,blue,red,yellow,brown",0.792452830188679,0.626865671641791,0.709659250915235,2.33962264150943,2.02985074626866,2.18473669388905,FALSE,FALSE,FALSE
"229",109,4,"453","true","s","s","ks","d","i","black","b,d,i,k","cyan,magenta,green,blue",0.792452830188679,0.626865671641791,0.709659250915235,2.33962264150943,2.02985074626866,2.18473669388905,FALSE,FALSE,FALSE
"230",110,4,"424","true","s","s","ks","d","k","green","b,d,i,k","magenta,orange,cyan,brown",0.792452830188679,0.626865671641791,0.709659250915235,2.33962264150943,2.02985074626866,2.18473669388905,FALSE,FALSE,FALSE
"231",111,4,"457","true","s","s","ks","d","c","orange","c,f,g,k","blue,yellow,cyan,black",0.792452830188679,0.626865671641791,0.709659250915235,2.33962264150943,2.02985074626866,2.18473669388905,FALSE,FALSE,FALSE
"232",112,8,"591","false","k","s","ks","d","k","brown","c,a,f,d,i,h,k,j","magenta,blue,orange,red,black,yellow,green,cyan",0.792452830188679,0.626865671641791,0.709659250915235,2.33962264150943,2.02985074626866,2.18473669388905,FALSE,FALSE,FALSE
"233",113,4,"551","true","k","k","ks","s","b","brown","b,f,g,k","brown,orange,cyan,yellow",0.792452830188679,0.626865671641791,0.709659250915235,2.33962264150943,2.02985074626866,2.18473669388905,FALSE,FALSE,FALSE
"234",114,4,"634","true","k","k","ks","s","d","black","c,d,i,k","cyan,black,yellow,red",0.792452830188679,0.626865671641791,0.709659250915235,2.33962264150943,2.02985074626866,2.18473669388905,FALSE,FALSE,FALSE
"235",115,4,"1421","true","s","s","ks","d","k","magenta","a,f,i,k","cyan,green,orange,brown",0.792452830188679,0.626865671641791,0.709659250915235,2.33962264150943,2.02985074626866,2.18473669388905,FALSE,FALSE,FALSE
"236",116,8,"741","true","s","s","ks","d","i","brown","a,b,f,d,i,g,j,l","black,blue,orange,magenta,cyan,green,red,yellow",0.792452830188679,0.626865671641791,0.709659250915235,2.33962264150943,2.02985074626866,2.18473669388905,FALSE,FALSE,FALSE
"237",117,8,"741","true","s","s","ks","d","k","cyan","b,a,e,d,h,g,k,l","blue,red,black,yellow,brown,magenta,green,orange",0.792452830188679,0.626865671641791,0.709659250915235,2.33962264150943,2.02985074626866,2.18473669388905,FALSE,FALSE,FALSE
"238",118,8,"1186","false","k","s","ks","d","j","orange","a,b,e,d,g,h,j,l","green,black,cyan,red,yellow,blue,brown,magenta",0.792452830188679,0.626865671641791,0.709659250915235,2.33962264150943,2.02985074626866,2.18473669388905,FALSE,FALSE,FALSE
"239",119,4,"539","true","s","s","ks","d","b","yellow","b,f,h,j","magenta,cyan,green,brown",0.792452830188679,0.626865671641791,0.709659250915235,2.33962264150943,2.02985074626866,2.18473669388905,FALSE,FALSE,FALSE
"240",120,4,"447","false","k","s","ks","d","g","yellow","a,f,g,k","red,orange,blue,green",0.792452830188679,0.626865671641791,0.709659250915235,2.33962264150943,2.02985074626866,2.18473669388905,FALSE,FALSE,FALSE
"241",1,4,"845","true","k","k","sk","d","k","black","c,e,g,k","orange,red,green,brown",0.867647058823529,0.615384615384615,0.741515837104072,2.94117647058824,1.84615384615385,2.39366515837104,FALSE,FALSE,FALSE
"242",2,8,"770","true","k","k","sk","d","c","orange","b,c,d,f,h,i,k,l","magenta,brown,green,blue,black,yellow,cyan,red",0.867647058823529,0.615384615384615,0.741515837104072,2.94117647058824,1.84615384615385,2.39366515837104,FALSE,FALSE,FALSE
"243",3,8,"849","true","s","s","sk","s","j","brown","b,c,e,d,g,h,j,l","magenta,orange,red,green,black,yellow,brown,blue",0.867647058823529,0.615384615384615,0.741515837104072,2.94117647058824,1.84615384615385,2.39366515837104,FALSE,FALSE,FALSE
"244",4,8,"902","true","k","k","sk","d","j","brown","a,b,d,e,i,h,k,j","black,green,red,magenta,orange,blue,yellow,cyan",0.867647058823529,0.615384615384615,0.741515837104072,2.94117647058824,1.84615384615385,2.39366515837104,FALSE,FALSE,FALSE
"245",5,4,"763","true","k","k","sk","d","j","orange","c,f,h,j","magenta,green,cyan,brown",0.867647058823529,0.615384615384615,0.741515837104072,2.94117647058824,1.84615384615385,2.39366515837104,FALSE,FALSE,FALSE
"246",6,8,"985","true","k","k","sk","d","l","red","a,c,f,d,i,g,j,l","cyan,brown,magenta,black,orange,yellow,blue,green",0.867647058823529,0.615384615384615,0.741515837104072,2.94117647058824,1.84615384615385,2.39366515837104,FALSE,FALSE,FALSE
"247",7,8,"1030","false","k","s","sk","s","f","green","a,c,f,e,g,h,l,j","blue,yellow,green,orange,cyan,brown,black,magenta",0.867647058823529,0.615384615384615,0.741515837104072,2.94117647058824,1.84615384615385,2.39366515837104,FALSE,FALSE,FALSE
"248",8,4,"933","true","k","k","sk","d","i","magenta","a,f,i,l","cyan,yellow,orange,green",0.867647058823529,0.615384615384615,0.741515837104072,2.94117647058824,1.84615384615385,2.39366515837104,FALSE,FALSE,FALSE
"249",9,8,"870","false","k","s","sk","s","j","green","a,c,e,d,g,i,k,j","black,red,magenta,brown,blue,cyan,yellow,green",0.867647058823529,0.615384615384615,0.741515837104072,2.94117647058824,1.84615384615385,2.39366515837104,FALSE,FALSE,FALSE
"250",10,4,"907","true","s","s","sk","s","h","black","c,e,h,l","orange,brown,black,green",0.867647058823529,0.615384615384615,0.741515837104072,2.94117647058824,1.84615384615385,2.39366515837104,FALSE,FALSE,FALSE
"251",11,4,"709","true","k","k","sk","d","k","red","c,f,h,k","yellow,magenta,orange,brown",0.867647058823529,0.615384615384615,0.741515837104072,2.94117647058824,1.84615384615385,2.39366515837104,FALSE,FALSE,FALSE
"252",12,8,"853","true","s","s","sk","s","d","cyan","c,a,d,f,i,g,k,l","black,brown,cyan,blue,green,yellow,red,orange",0.867647058823529,0.615384615384615,0.741515837104072,2.94117647058824,1.84615384615385,2.39366515837104,FALSE,FALSE,FALSE
"253",13,4,"825","true","k","k","sk","d","h","black","c,d,h,j","cyan,green,blue,magenta",0.867647058823529,0.615384615384615,0.741515837104072,2.94117647058824,1.84615384615385,2.39366515837104,FALSE,FALSE,FALSE
"254",14,8,"706","false","k","s","sk","s","g","black","b,a,d,e,h,g,j,l","magenta,red,orange,yellow,green,black,blue,cyan",0.867647058823529,0.615384615384615,0.741515837104072,2.94117647058824,1.84615384615385,2.39366515837104,FALSE,FALSE,FALSE
"255",15,8,"946","false","k","s","sk","s","d","yellow","a,c,f,d,i,h,j,l","orange,magenta,red,yellow,black,brown,cyan,green",0.867647058823529,0.615384615384615,0.741515837104072,2.94117647058824,1.84615384615385,2.39366515837104,FALSE,FALSE,FALSE
"256",16,4,"879","true","k","k","sk","d","e","green","a,e,i,k","black,yellow,blue,brown",0.867647058823529,0.615384615384615,0.741515837104072,2.94117647058824,1.84615384615385,2.39366515837104,FALSE,FALSE,FALSE
"257",17,4,"805","true","k","k","sk","d","l","magenta","c,e,i,l","orange,green,yellow,black",0.867647058823529,0.615384615384615,0.741515837104072,2.94117647058824,1.84615384615385,2.39366515837104,FALSE,FALSE,FALSE
"258",18,8,"941","false","s","k","sk","d","l","magenta","a,b,e,f,g,i,j,l","cyan,green,yellow,orange,brown,red,blue,black",0.867647058823529,0.615384615384615,0.741515837104072,2.94117647058824,1.84615384615385,2.39366515837104,FALSE,FALSE,FALSE
"259",19,4,"698","true","k","k","sk","d","k","yellow","c,d,i,k","black,cyan,green,red",0.867647058823529,0.615384615384615,0.741515837104072,2.94117647058824,1.84615384615385,2.39366515837104,FALSE,FALSE,FALSE
"260",20,8,"965","false","k","s","sk","s","e","brown","c,a,f,e,g,h,j,l","cyan,blue,magenta,brown,red,orange,green,black",0.867647058823529,0.615384615384615,0.741515837104072,2.94117647058824,1.84615384615385,2.39366515837104,FALSE,FALSE,FALSE
"261",21,8,"923","false","k","s","sk","s","f","cyan","a,b,f,e,h,i,j,k","green,blue,cyan,red,magenta,orange,yellow,black",0.867647058823529,0.615384615384615,0.741515837104072,2.94117647058824,1.84615384615385,2.39366515837104,FALSE,FALSE,FALSE
"262",22,4,"764","true","k","k","sk","d","k","magenta","b,f,h,k","red,green,yellow,cyan",0.867647058823529,0.615384615384615,0.741515837104072,2.94117647058824,1.84615384615385,2.39366515837104,FALSE,FALSE,FALSE
"263",23,4,"725","true","s","s","sk","s","c","magenta","c,d,g,l","magenta,red,black,green",0.867647058823529,0.615384615384615,0.741515837104072,2.94117647058824,1.84615384615385,2.39366515837104,FALSE,FALSE,FALSE
"264",24,4,"700","true","k","k","sk","d","f","orange","c,f,h,j","magenta,yellow,green,cyan",0.867647058823529,0.615384615384615,0.741515837104072,2.94117647058824,1.84615384615385,2.39366515837104,FALSE,FALSE,FALSE
"265",25,8,"855","true","k","k","sk","d","c","cyan","c,b,d,f,i,g,l,k","black,red,orange,brown,yellow,blue,magenta,green",0.867647058823529,0.615384615384615,0.741515837104072,2.94117647058824,1.84615384615385,2.39366515837104,FALSE,FALSE,FALSE
"266",26,8,"726","true","k","k","sk","d","c","orange","c,a,f,d,i,h,k,j","red,green,magenta,cyan,brown,yellow,black,blue",0.867647058823529,0.615384615384615,0.741515837104072,2.94117647058824,1.84615384615385,2.39366515837104,FALSE,FALSE,FALSE
"267",27,4,"1111","false","k","s","sk","s","k","magenta","a,e,i,k","yellow,green,cyan,magenta",0.867647058823529,0.615384615384615,0.741515837104072,2.94117647058824,1.84615384615385,2.39366515837104,FALSE,FALSE,FALSE
"268",28,8,"823","false","k","s","sk","s","k","black","c,a,e,f,i,h,j,k","red,brown,orange,yellow,magenta,cyan,blue,black",0.867647058823529,0.615384615384615,0.741515837104072,2.94117647058824,1.84615384615385,2.39366515837104,FALSE,FALSE,FALSE
"269",29,4,"735","true","s","s","sk","s","i","orange","a,d,i,k","green,magenta,orange,brown",0.867647058823529,0.615384615384615,0.741515837104072,2.94117647058824,1.84615384615385,2.39366515837104,FALSE,FALSE,FALSE
"270",30,4,"918","false","k","s","sk","s","j","orange","c,f,g,j","brown,blue,black,orange",0.867647058823529,0.615384615384615,0.741515837104072,2.94117647058824,1.84615384615385,2.39366515837104,FALSE,FALSE,FALSE
"271",31,4,"1246","true","k","k","sk","d","h","cyan","b,e,h,l","green,red,black,orange",0.867647058823529,0.615384615384615,0.741515837104072,2.94117647058824,1.84615384615385,2.39366515837104,FALSE,FALSE,FALSE
"272",32,8,"747","true","s","s","sk","s","i","brown","b,c,e,d,i,h,k,l","magenta,red,cyan,green,brown,yellow,blue,black",0.867647058823529,0.615384615384615,0.741515837104072,2.94117647058824,1.84615384615385,2.39366515837104,FALSE,FALSE,FALSE
"273",33,4,"951","false","k","s","sk","s","d","red","c,d,h,j","brown,red,magenta,orange",0.867647058823529,0.615384615384615,0.741515837104072,2.94117647058824,1.84615384615385,2.39366515837104,FALSE,FALSE,FALSE
"274",34,8,"1074","false","k","s","sk","s","g","blue","c,a,d,f,h,g,l,j","magenta,yellow,red,black,brown,blue,cyan,green",0.867647058823529,0.615384615384615,0.741515837104072,2.94117647058824,1.84615384615385,2.39366515837104,FALSE,FALSE,FALSE
"275",35,8,"1263","true","s","s","sk","s","i","yellow","b,c,e,f,g,i,j,k","orange,magenta,blue,cyan,brown,yellow,red,black",0.867647058823529,0.615384615384615,0.741515837104072,2.94117647058824,1.84615384615385,2.39366515837104,FALSE,FALSE,FALSE
"276",36,4,"592","true","s","s","sk","s","a","green","a,d,h,k","green,yellow,red,magenta",0.867647058823529,0.615384615384615,0.741515837104072,2.94117647058824,1.84615384615385,2.39366515837104,FALSE,FALSE,FALSE
"277",37,8,"564","true","s","s","sk","s","c","black","a,c,d,e,h,i,k,j","brown,black,blue,magenta,orange,red,yellow,cyan",0.867647058823529,0.615384615384615,0.741515837104072,2.94117647058824,1.84615384615385,2.39366515837104,FALSE,FALSE,FALSE
"278",38,8,"932","true","k","k","sk","d","l","yellow","a,b,e,d,g,i,l,k","brown,blue,red,magenta,black,green,cyan,orange",0.867647058823529,0.615384615384615,0.741515837104072,2.94117647058824,1.84615384615385,2.39366515837104,FALSE,FALSE,FALSE
"279",39,8,"816","true","k","k","sk","d","k","blue","a,c,f,e,i,g,k,j","magenta,yellow,green,orange,red,cyan,brown,black",0.867647058823529,0.615384615384615,0.741515837104072,2.94117647058824,1.84615384615385,2.39366515837104,FALSE,FALSE,FALSE
"280",40,4,"586","true","s","s","sk","s","i","yellow","c,e,i,l","orange,green,yellow,cyan",0.867647058823529,0.615384615384615,0.741515837104072,2.94117647058824,1.84615384615385,2.39366515837104,FALSE,FALSE,FALSE
"281",41,8,"843","true","k","k","sk","d","g","blue","c,b,f,d,h,g,j,k","orange,red,yellow,green,brown,magenta,black,cyan",0.867647058823529,0.615384615384615,0.741515837104072,2.94117647058824,1.84615384615385,2.39366515837104,FALSE,FALSE,FALSE
"282",42,8,"974","false","k","s","sk","s","a","red","c,a,e,d,i,h,j,l","black,red,orange,magenta,yellow,blue,green,brown",0.867647058823529,0.615384615384615,0.741515837104072,2.94117647058824,1.84615384615385,2.39366515837104,FALSE,FALSE,FALSE
"283",43,4,"616","true","s","s","sk","s","i","brown","b,e,i,k","green,red,brown,magenta",0.867647058823529,0.615384615384615,0.741515837104072,2.94117647058824,1.84615384615385,2.39366515837104,FALSE,FALSE,FALSE
"284",44,8,"807","false","k","s","sk","s","k","cyan","b,c,f,d,g,h,k,l","orange,brown,yellow,blue,red,magenta,cyan,green",0.867647058823529,0.615384615384615,0.741515837104072,2.94117647058824,1.84615384615385,2.39366515837104,FALSE,FALSE,FALSE
"285",45,4,"773","true","k","k","sk","d","g","yellow","a,f,g,j","blue,magenta,brown,orange",0.867647058823529,0.615384615384615,0.741515837104072,2.94117647058824,1.84615384615385,2.39366515837104,FALSE,FALSE,FALSE
"286",46,8,"635","true","s","s","sk","s","i","cyan","a,b,e,f,g,i,k,l","yellow,blue,magenta,brown,green,cyan,orange,black",0.867647058823529,0.615384615384615,0.741515837104072,2.94117647058824,1.84615384615385,2.39366515837104,FALSE,FALSE,FALSE
"287",47,4,"416","true","s","s","sk","s","i","red","a,f,i,k","black,orange,red,cyan",0.867647058823529,0.615384615384615,0.741515837104072,2.94117647058824,1.84615384615385,2.39366515837104,FALSE,FALSE,FALSE
"288",48,8,"1242","false","k","s","sk","s","f","magenta","c,b,f,e,i,g,k,l","brown,black,magenta,blue,yellow,orange,red,green",0.867647058823529,0.615384615384615,0.741515837104072,2.94117647058824,1.84615384615385,2.39366515837104,FALSE,FALSE,FALSE
"289",49,4,"808","true","k","k","sk","d","e","cyan","b,e,g,j","yellow,brown,black,magenta",0.867647058823529,0.615384615384615,0.741515837104072,2.94117647058824,1.84615384615385,2.39366515837104,FALSE,FALSE,FALSE
"290",50,8,"710","false","s","k","sk","d","l","yellow","c,b,e,d,h,g,l,k","blue,orange,red,green,brown,magenta,cyan,black",0.867647058823529,0.615384615384615,0.741515837104072,2.94117647058824,1.84615384615385,2.39366515837104,FALSE,FALSE,FALSE
"291",51,4,"814","true","k","k","sk","d","i","cyan","b,e,i,l","brown,yellow,orange,black",0.867647058823529,0.615384615384615,0.741515837104072,2.94117647058824,1.84615384615385,2.39366515837104,FALSE,FALSE,FALSE
"292",52,8,"1507","true","k","k","sk","d","i","magenta","b,a,f,e,i,h,k,j","cyan,yellow,blue,red,green,black,brown,orange",0.867647058823529,0.615384615384615,0.741515837104072,2.94117647058824,1.84615384615385,2.39366515837104,FALSE,FALSE,FALSE
"293",53,4,"1134","false","s","k","sk","d","b","brown","b,e,i,l","orange,red,blue,cyan",0.867647058823529,0.615384615384615,0.741515837104072,2.94117647058824,1.84615384615385,2.39366515837104,FALSE,FALSE,FALSE
"294",54,4,"533","true","s","s","sk","s","e","brown","a,e,g,j","cyan,brown,red,blue",0.867647058823529,0.615384615384615,0.741515837104072,2.94117647058824,1.84615384615385,2.39366515837104,FALSE,FALSE,FALSE
"295",55,4,"627","true","k","k","sk","d","h","black","a,e,h,j","magenta,red,yellow,orange",0.867647058823529,0.615384615384615,0.741515837104072,2.94117647058824,1.84615384615385,2.39366515837104,FALSE,FALSE,FALSE
"296",56,4,"656","true","s","s","sk","s","i","black","c,f,i,k","green,cyan,black,brown",0.867647058823529,0.615384615384615,0.741515837104072,2.94117647058824,1.84615384615385,2.39366515837104,FALSE,FALSE,FALSE
"297",57,4,"757","true","k","k","sk","d","g","magenta","b,f,g,j","red,orange,brown,black",0.867647058823529,0.615384615384615,0.741515837104072,2.94117647058824,1.84615384615385,2.39366515837104,FALSE,FALSE,FALSE
"298",58,4,"908","false","k","s","sk","s","j","brown","c,f,i,j","red,cyan,yellow,brown",0.867647058823529,0.615384615384615,0.741515837104072,2.94117647058824,1.84615384615385,2.39366515837104,FALSE,FALSE,FALSE
"299",59,8,"1200","false","k","s","sk","s","d","blue","a,c,d,e,h,i,k,j","magenta,cyan,blue,green,yellow,orange,red,black",0.867647058823529,0.615384615384615,0.741515837104072,2.94117647058824,1.84615384615385,2.39366515837104,FALSE,FALSE,FALSE
"300",60,4,"1075","false","k","s","sk","s","j","blue","c,d,i,j","cyan,magenta,yellow,blue",0.867647058823529,0.615384615384615,0.741515837104072,2.94117647058824,1.84615384615385,2.39366515837104,FALSE,FALSE,FALSE
"301",61,8,"1152","true","k","k","sk","d","d","blue","b,c,e,d,g,i,k,j","red,cyan,orange,magenta,brown,black,green,yellow",0.867647058823529,0.615384615384615,0.741515837104072,2.94117647058824,1.84615384615385,2.39366515837104,FALSE,FALSE,FALSE
"302",62,8,"1258","true","k","k","sk","d","g","red","b,c,f,e,g,h,j,k","blue,orange,cyan,brown,black,yellow,magenta,green",0.867647058823529,0.615384615384615,0.741515837104072,2.94117647058824,1.84615384615385,2.39366515837104,FALSE,FALSE,FALSE
"303",63,8,"1939","true","s","s","sk","s","j","black","b,a,e,f,i,h,l,j","magenta,green,blue,brown,cyan,orange,yellow,black",0.867647058823529,0.615384615384615,0.741515837104072,2.94117647058824,1.84615384615385,2.39366515837104,FALSE,FALSE,FALSE
"304",64,8,"827","true","k","k","sk","d","a","cyan","b,a,e,f,g,i,l,j","magenta,brown,blue,yellow,red,black,orange,green",0.867647058823529,0.615384615384615,0.741515837104072,2.94117647058824,1.84615384615385,2.39366515837104,FALSE,FALSE,FALSE
"305",65,8,"897","false","k","s","sk","s","j","green","b,c,d,f,h,g,j,l","magenta,cyan,brown,yellow,black,blue,green,orange",0.867647058823529,0.615384615384615,0.741515837104072,2.94117647058824,1.84615384615385,2.39366515837104,FALSE,FALSE,FALSE
"306",66,4,"951","false","k","s","sk","s","b","magenta","b,d,g,l","magenta,green,orange,red",0.867647058823529,0.615384615384615,0.741515837104072,2.94117647058824,1.84615384615385,2.39366515837104,FALSE,FALSE,FALSE
"307",67,8,"1716","true","k","k","sk","d","j","green","a,b,d,f,i,g,j,k","black,yellow,orange,magenta,cyan,brown,red,blue",0.867647058823529,0.615384615384615,0.741515837104072,2.94117647058824,1.84615384615385,2.39366515837104,FALSE,FALSE,FALSE
"308",68,4,"554","true","s","s","sk","s","i","red","b,e,i,k","brown,cyan,red,green",0.867647058823529,0.615384615384615,0.741515837104072,2.94117647058824,1.84615384615385,2.39366515837104,FALSE,FALSE,FALSE
"309",69,8,"1027","true","s","s","sk","s","k","cyan","c,a,d,f,g,i,l,k","yellow,red,brown,orange,magenta,blue,black,cyan",0.867647058823529,0.615384615384615,0.741515837104072,2.94117647058824,1.84615384615385,2.39366515837104,FALSE,FALSE,FALSE
"310",70,4,"593","true","s","s","sk","s","g","brown","c,f,g,j","yellow,magenta,brown,blue",0.867647058823529,0.615384615384615,0.741515837104072,2.94117647058824,1.84615384615385,2.39366515837104,FALSE,FALSE,FALSE
"311",71,4,"693","true","k","k","sk","d","b","cyan","b,e,i,k","magenta,yellow,brown,red",0.867647058823529,0.615384615384615,0.741515837104072,2.94117647058824,1.84615384615385,2.39366515837104,FALSE,FALSE,FALSE
"312",72,4,"524","true","s","s","sk","s","b","green","b,d,h,k","green,cyan,orange,brown",0.867647058823529,0.615384615384615,0.741515837104072,2.94117647058824,1.84615384615385,2.39366515837104,FALSE,FALSE,FALSE
"313",73,8,"1001","true","s","s","sk","s","h","red","b,c,d,f,i,h,j,k","orange,green,black,magenta,cyan,red,yellow,blue",0.867647058823529,0.615384615384615,0.741515837104072,2.94117647058824,1.84615384615385,2.39366515837104,FALSE,FALSE,FALSE
"314",74,4,"706","true","k","k","sk","d","l","yellow","b,e,h,l","magenta,black,orange,brown",0.867647058823529,0.615384615384615,0.741515837104072,2.94117647058824,1.84615384615385,2.39366515837104,FALSE,FALSE,FALSE
"315",75,4,"575","true","k","k","sk","d","b","red","b,e,h,k","blue,green,black,magenta",0.867647058823529,0.615384615384615,0.741515837104072,2.94117647058824,1.84615384615385,2.39366515837104,FALSE,FALSE,FALSE
"316",76,4,"910","true","k","k","sk","d","h","yellow","a,d,h,j","cyan,blue,green,brown",0.867647058823529,0.615384615384615,0.741515837104072,2.94117647058824,1.84615384615385,2.39366515837104,FALSE,FALSE,FALSE
"317",77,8,"1087","false","k","s","sk","s","g","green","c,b,e,f,h,g,k,l","blue,red,yellow,orange,brown,green,magenta,black",0.867647058823529,0.615384615384615,0.741515837104072,2.94117647058824,1.84615384615385,2.39366515837104,FALSE,FALSE,FALSE
"318",78,4,"736","false","s","k","sk","d","f","red","b,f,i,j","brown,cyan,black,magenta",0.867647058823529,0.615384615384615,0.741515837104072,2.94117647058824,1.84615384615385,2.39366515837104,FALSE,FALSE,FALSE
"319",79,8,"665","true","s","s","sk","s","g","yellow","a,b,e,d,g,i,k,j","red,magenta,green,blue,yellow,brown,black,orange",0.867647058823529,0.615384615384615,0.741515837104072,2.94117647058824,1.84615384615385,2.39366515837104,FALSE,FALSE,FALSE
"320",80,8,"1048","false","k","s","sk","s","b","brown","a,b,e,d,g,h,l,j","blue,brown,green,red,magenta,yellow,orange,black",0.867647058823529,0.615384615384615,0.741515837104072,2.94117647058824,1.84615384615385,2.39366515837104,FALSE,FALSE,FALSE
"321",81,8,"836","true","k","k","sk","d","c","blue","c,a,e,d,i,h,j,k","black,brown,cyan,red,magenta,yellow,orange,green",0.867647058823529,0.615384615384615,0.741515837104072,2.94117647058824,1.84615384615385,2.39366515837104,FALSE,FALSE,FALSE
"322",82,4,"933","true","s","s","sk","s","h","orange","b,d,h,k","cyan,red,orange,yellow",0.867647058823529,0.615384615384615,0.741515837104072,2.94117647058824,1.84615384615385,2.39366515837104,FALSE,FALSE,FALSE
"323",83,8,"1357","true","s","s","sk","s","b","brown","a,b,d,e,g,h,l,j","black,brown,red,yellow,blue,cyan,orange,magenta",0.867647058823529,0.615384615384615,0.741515837104072,2.94117647058824,1.84615384615385,2.39366515837104,FALSE,FALSE,FALSE
"324",84,8,"704","true","k","k","sk","d","e","orange","a,c,f,e,g,h,l,j","black,red,green,cyan,magenta,yellow,blue,brown",0.867647058823529,0.615384615384615,0.741515837104072,2.94117647058824,1.84615384615385,2.39366515837104,FALSE,FALSE,FALSE
"325",85,4,"806","true","k","k","sk","d","j","blue","a,f,i,j","red,magenta,black,orange",0.867647058823529,0.615384615384615,0.741515837104072,2.94117647058824,1.84615384615385,2.39366515837104,FALSE,FALSE,FALSE
"326",86,8,"901","true","k","k","sk","d","j","brown","b,c,d,f,h,g,j,l","magenta,blue,orange,cyan,red,yellow,green,black",0.867647058823529,0.615384615384615,0.741515837104072,2.94117647058824,1.84615384615385,2.39366515837104,FALSE,FALSE,FALSE
"327",87,4,"632","true","k","k","sk","d","h","orange","a,e,h,k","blue,black,yellow,brown",0.867647058823529,0.615384615384615,0.741515837104072,2.94117647058824,1.84615384615385,2.39366515837104,FALSE,FALSE,FALSE
"328",88,4,"549","true","k","k","sk","d","c","green","c,f,g,j","cyan,orange,red,yellow",0.867647058823529,0.615384615384615,0.741515837104072,2.94117647058824,1.84615384615385,2.39366515837104,FALSE,FALSE,FALSE
"329",89,4,"644","true","k","k","sk","d","g","red","a,d,g,l","yellow,cyan,black,magenta",0.867647058823529,0.615384615384615,0.741515837104072,2.94117647058824,1.84615384615385,2.39366515837104,FALSE,FALSE,FALSE
"330",90,4,"930","true","k","k","sk","d","i","red","c,e,i,l","yellow,black,orange,blue",0.867647058823529,0.615384615384615,0.741515837104072,2.94117647058824,1.84615384615385,2.39366515837104,FALSE,FALSE,FALSE
"331",91,4,"566","true","s","s","sk","s","h","blue","a,e,h,l","black,green,blue,yellow",0.867647058823529,0.615384615384615,0.741515837104072,2.94117647058824,1.84615384615385,2.39366515837104,FALSE,FALSE,FALSE
"332",92,4,"633","true","k","k","sk","d","l","red","b,e,h,l","orange,cyan,blue,black",0.867647058823529,0.615384615384615,0.741515837104072,2.94117647058824,1.84615384615385,2.39366515837104,FALSE,FALSE,FALSE
"333",93,4,"533","true","s","s","sk","s","a","brown","a,d,g,k","brown,black,cyan,yellow",0.867647058823529,0.615384615384615,0.741515837104072,2.94117647058824,1.84615384615385,2.39366515837104,FALSE,FALSE,FALSE
"334",94,8,"631","true","s","s","sk","s","g","blue","c,b,e,d,i,g,k,l","brown,green,yellow,cyan,magenta,blue,red,orange",0.867647058823529,0.615384615384615,0.741515837104072,2.94117647058824,1.84615384615385,2.39366515837104,FALSE,FALSE,FALSE
"335",95,8,"908","true","k","k","sk","d","e","yellow","b,a,d,e,h,i,l,k","cyan,orange,blue,magenta,red,brown,black,green",0.867647058823529,0.615384615384615,0.741515837104072,2.94117647058824,1.84615384615385,2.39366515837104,FALSE,FALSE,FALSE
"336",96,4,"530","true","s","s","sk","s","h","brown","a,e,h,j","orange,yellow,brown,red",0.867647058823529,0.615384615384615,0.741515837104072,2.94117647058824,1.84615384615385,2.39366515837104,FALSE,FALSE,FALSE
"337",97,4,"561","true","k","k","sk","d","i","yellow","b,e,i,k","black,orange,magenta,red",0.867647058823529,0.615384615384615,0.741515837104072,2.94117647058824,1.84615384615385,2.39366515837104,FALSE,FALSE,FALSE
"338",98,4,"657","true","k","k","sk","d","b","yellow","b,d,g,k","orange,black,green,red",0.867647058823529,0.615384615384615,0.741515837104072,2.94117647058824,1.84615384615385,2.39366515837104,FALSE,FALSE,FALSE
"339",99,4,"710","true","s","s","sk","s","a","cyan","a,d,i,j","cyan,black,brown,green",0.867647058823529,0.615384615384615,0.741515837104072,2.94117647058824,1.84615384615385,2.39366515837104,FALSE,FALSE,FALSE
"340",100,4,"803","true","s","s","sk","s","i","cyan","b,d,i,l","blue,orange,cyan,black",0.867647058823529,0.615384615384615,0.741515837104072,2.94117647058824,1.84615384615385,2.39366515837104,FALSE,FALSE,FALSE
"341",101,4,"588","true","k","k","sk","d","e","brown","b,e,h,k","red,green,black,magenta",0.867647058823529,0.615384615384615,0.741515837104072,2.94117647058824,1.84615384615385,2.39366515837104,FALSE,FALSE,FALSE
"342",102,4,"373","true","s","s","sk","s","g","blue","c,e,g,l","magenta,brown,blue,yellow",0.867647058823529,0.615384615384615,0.741515837104072,2.94117647058824,1.84615384615385,2.39366515837104,FALSE,FALSE,FALSE
"343",103,4,"530","true","k","k","sk","d","g","green","a,d,g,k","cyan,red,brown,orange",0.867647058823529,0.615384615384615,0.741515837104072,2.94117647058824,1.84615384615385,2.39366515837104,FALSE,FALSE,FALSE
"344",104,4,"420","true","s","s","sk","s","g","red","a,e,g,j","black,brown,red,yellow",0.867647058823529,0.615384615384615,0.741515837104072,2.94117647058824,1.84615384615385,2.39366515837104,FALSE,FALSE,FALSE
"345",105,4,"709","true","s","s","sk","s","l","black","a,e,g,l","brown,green,orange,black",0.867647058823529,0.615384615384615,0.741515837104072,2.94117647058824,1.84615384615385,2.39366515837104,FALSE,FALSE,FALSE
"346",106,4,"624","true","s","s","sk","s","h","brown","c,e,h,j","blue,red,brown,black",0.867647058823529,0.615384615384615,0.741515837104072,2.94117647058824,1.84615384615385,2.39366515837104,FALSE,FALSE,FALSE
"347",107,4,"532","true","s","s","sk","s","a","yellow","a,e,i,k","yellow,cyan,blue,red",0.867647058823529,0.615384615384615,0.741515837104072,2.94117647058824,1.84615384615385,2.39366515837104,FALSE,FALSE,FALSE
"348",108,8,"636","false","k","s","sk","s","l","red","a,c,f,e,i,h,l,k","black,magenta,brown,orange,green,cyan,red,blue",0.867647058823529,0.615384615384615,0.741515837104072,2.94117647058824,1.84615384615385,2.39366515837104,FALSE,FALSE,FALSE
"349",109,8,"688","true","k","k","sk","d","c","yellow","a,c,f,e,g,h,k,l","cyan,orange,green,magenta,brown,black,red,blue",0.867647058823529,0.615384615384615,0.741515837104072,2.94117647058824,1.84615384615385,2.39366515837104,FALSE,FALSE,FALSE
"350",110,4,"538","true","k","k","sk","d","h","red","c,e,h,j","orange,brown,green,black",0.867647058823529,0.615384615384615,0.741515837104072,2.94117647058824,1.84615384615385,2.39366515837104,FALSE,FALSE,FALSE
"351",111,4,"516","true","s","s","sk","s","k","brown","a,f,g,k","orange,red,magenta,brown",0.867647058823529,0.615384615384615,0.741515837104072,2.94117647058824,1.84615384615385,2.39366515837104,FALSE,FALSE,FALSE
"352",112,4,"742","true","s","s","sk","s","i","red","b,d,i,l","orange,black,red,cyan",0.867647058823529,0.615384615384615,0.741515837104072,2.94117647058824,1.84615384615385,2.39366515837104,FALSE,FALSE,FALSE
"353",113,8,"625","true","k","k","sk","d","e","yellow","c,b,e,f,g,h,k,l","orange,blue,magenta,brown,cyan,black,green,red",0.867647058823529,0.615384615384615,0.741515837104072,2.94117647058824,1.84615384615385,2.39366515837104,FALSE,FALSE,FALSE
"354",114,8,"762","false","k","s","sk","s","k","black","b,c,f,d,h,i,j,k","magenta,green,cyan,yellow,blue,brown,red,black",0.867647058823529,0.615384615384615,0.741515837104072,2.94117647058824,1.84615384615385,2.39366515837104,FALSE,FALSE,FALSE
"355",115,4,"501","true","s","s","sk","s","d","brown","c,d,h,j","magenta,brown,yellow,red",0.867647058823529,0.615384615384615,0.741515837104072,2.94117647058824,1.84615384615385,2.39366515837104,FALSE,FALSE,FALSE
"356",116,8,"522","true","k","k","sk","d","a","orange","a,b,e,f,h,g,k,l","cyan,magenta,green,brown,black,yellow,blue,red",0.867647058823529,0.615384615384615,0.741515837104072,2.94117647058824,1.84615384615385,2.39366515837104,FALSE,FALSE,FALSE
"357",117,4,"615","false","s","k","sk","d","l","brown","a,f,g,l","black,orange,blue,magenta",0.867647058823529,0.615384615384615,0.741515837104072,2.94117647058824,1.84615384615385,2.39366515837104,FALSE,FALSE,FALSE
"358",118,4,"446","true","s","s","sk","s","l","brown","a,f,i,l","green,orange,blue,brown",0.867647058823529,0.615384615384615,0.741515837104072,2.94117647058824,1.84615384615385,2.39366515837104,FALSE,FALSE,FALSE
"359",119,4,"482","true","k","k","sk","d","d","magenta","b,d,h,j","yellow,green,blue,orange",0.867647058823529,0.615384615384615,0.741515837104072,2.94117647058824,1.84615384615385,2.39366515837104,FALSE,FALSE,FALSE
"360",120,8,"741","false","s","k","sk","d","k","blue","b,c,f,e,i,g,j,k","black,magenta,orange,red,brown,yellow,green,cyan",0.867647058823529,0.615384615384615,0.741515837104072,2.94117647058824,1.84615384615385,2.39366515837104,FALSE,FALSE,FALSE
"361",1,8,"1612","true","k","k","sk","d","g","brown","a,c,f,e,i,g,k,l","green,red,blue,cyan,orange,magenta,black,yellow",0.65,0.583333333333333,0.616666666666667,1.2,1.33333333333333,1.26666666666667,FALSE,FALSE,FALSE
"362",2,8,"1021","false","k","s","sk","s","j","red","b,a,d,e,i,g,j,k","blue,magenta,brown,green,orange,cyan,red,black",0.65,0.583333333333333,0.616666666666667,1.2,1.33333333333333,1.26666666666667,FALSE,FALSE,FALSE
"363",3,8,"1681","false","k","s","sk","s","d","brown","a,b,d,e,h,g,j,k","black,cyan,brown,yellow,magenta,blue,orange,red",0.65,0.583333333333333,0.616666666666667,1.2,1.33333333333333,1.26666666666667,FALSE,FALSE,FALSE
"364",4,8,"1654","false","s","k","sk","d","f","black","b,a,d,f,g,i,j,k","brown,green,blue,red,orange,cyan,yellow,magenta",0.65,0.583333333333333,0.616666666666667,1.2,1.33333333333333,1.26666666666667,FALSE,FALSE,FALSE
"365",5,4,"1461","true","k","k","sk","d","c","red","c,f,h,l","brown,yellow,cyan,blue",0.65,0.583333333333333,0.616666666666667,1.2,1.33333333333333,1.26666666666667,FALSE,FALSE,FALSE
"366",6,4,"1393","true","k","k","sk","d","f","cyan","c,f,g,l","red,brown,blue,yellow",0.65,0.583333333333333,0.616666666666667,1.2,1.33333333333333,1.26666666666667,FALSE,FALSE,FALSE
"367",7,4,"1178","true","k","k","sk","d","h","yellow","a,e,h,k","magenta,brown,orange,red",0.65,0.583333333333333,0.616666666666667,1.2,1.33333333333333,1.26666666666667,FALSE,FALSE,FALSE
"368",8,8,"1323","true","s","s","sk","s","b","yellow","b,c,e,f,h,i,k,l","yellow,red,black,orange,blue,magenta,cyan,green",0.65,0.583333333333333,0.616666666666667,1.2,1.33333333333333,1.26666666666667,FALSE,FALSE,FALSE
"369",9,8,"1063","true","k","k","sk","d","d","brown","a,b,d,f,h,g,l,j","blue,orange,magenta,black,green,cyan,yellow,red",0.65,0.583333333333333,0.616666666666667,1.2,1.33333333333333,1.26666666666667,FALSE,FALSE,FALSE
"370",10,4,"1116","false","k","s","sk","s","g","black","c,d,g,l","brown,magenta,black,yellow",0.65,0.583333333333333,0.616666666666667,1.2,1.33333333333333,1.26666666666667,FALSE,FALSE,FALSE
"371",11,8,"3091","true","s","s","sk","s","a","yellow","b,a,d,e,i,g,l,j","orange,yellow,black,magenta,blue,red,green,brown",0.65,0.583333333333333,0.616666666666667,1.2,1.33333333333333,1.26666666666667,FALSE,FALSE,FALSE
"372",12,4,"2533","false","k","s","sk","s","i","green","c,d,i,j","black,red,green,blue",0.65,0.583333333333333,0.616666666666667,1.2,1.33333333333333,1.26666666666667,FALSE,FALSE,FALSE
"373",13,4,"1263","true","k","k","sk","d","d","blue","c,d,h,l","brown,black,green,magenta",0.65,0.583333333333333,0.616666666666667,1.2,1.33333333333333,1.26666666666667,FALSE,FALSE,FALSE
"374",14,8,"1491","true","k","k","sk","d","l","brown","c,b,f,d,i,g,k,l","green,yellow,orange,red,magenta,black,cyan,blue",0.65,0.583333333333333,0.616666666666667,1.2,1.33333333333333,1.26666666666667,FALSE,FALSE,FALSE
"375",15,4,"1261","true","k","k","sk","d","g","green","a,e,g,k","orange,brown,blue,cyan",0.65,0.583333333333333,0.616666666666667,1.2,1.33333333333333,1.26666666666667,FALSE,FALSE,FALSE
"376",16,4,"1151","true","k","k","sk","d","e","yellow","b,e,g,k","blue,brown,red,green",0.65,0.583333333333333,0.616666666666667,1.2,1.33333333333333,1.26666666666667,FALSE,FALSE,FALSE
"377",17,8,"1263","true","k","k","sk","d","k","red","a,c,f,e,g,i,k,l","blue,cyan,magenta,yellow,orange,black,green,brown",0.65,0.583333333333333,0.616666666666667,1.2,1.33333333333333,1.26666666666667,FALSE,FALSE,FALSE
"378",18,4,"1084","true","s","s","sk","s","e","black","a,e,i,l","magenta,black,green,blue",0.65,0.583333333333333,0.616666666666667,1.2,1.33333333333333,1.26666666666667,FALSE,FALSE,FALSE
"379",19,8,"1641","false","s","k","sk","d","i","black","c,b,f,d,i,g,k,l","orange,yellow,cyan,red,green,magenta,blue,brown",0.65,0.583333333333333,0.616666666666667,1.2,1.33333333333333,1.26666666666667,FALSE,FALSE,FALSE
"380",20,8,"1205","true","s","s","sk","s","j","blue","a,c,f,e,h,g,k,j","brown,green,orange,cyan,red,yellow,magenta,blue",0.65,0.583333333333333,0.616666666666667,1.2,1.33333333333333,1.26666666666667,FALSE,FALSE,FALSE
"381",21,8,"1255","false","k","s","sk","s","j","brown","a,c,d,f,h,i,l,j","yellow,magenta,orange,black,blue,cyan,red,brown",0.65,0.583333333333333,0.616666666666667,1.2,1.33333333333333,1.26666666666667,FALSE,FALSE,FALSE
"382",22,4,"3534","true","s","s","sk","s","e","green","b,e,g,j","orange,green,brown,yellow",0.65,0.583333333333333,0.616666666666667,1.2,1.33333333333333,1.26666666666667,FALSE,FALSE,FALSE
"383",23,8,"1049","true","s","s","sk","s","j","blue","c,b,f,d,g,h,j,k","black,cyan,yellow,red,orange,green,blue,brown",0.65,0.583333333333333,0.616666666666667,1.2,1.33333333333333,1.26666666666667,FALSE,FALSE,FALSE
"384",24,4,"1656","false","k","s","sk","s","c","orange","c,f,g,k","orange,cyan,blue,yellow",0.65,0.583333333333333,0.616666666666667,1.2,1.33333333333333,1.26666666666667,FALSE,FALSE,FALSE
"385",25,8,"1357","true","s","s","sk","s","g","black","b,c,e,d,g,i,j,l","yellow,brown,red,green,black,cyan,blue,magenta",0.65,0.583333333333333,0.616666666666667,1.2,1.33333333333333,1.26666666666667,FALSE,FALSE,FALSE
"386",26,4,"1977","true","k","k","sk","d","g","red","b,d,g,l","green,yellow,blue,orange",0.65,0.583333333333333,0.616666666666667,1.2,1.33333333333333,1.26666666666667,FALSE,FALSE,FALSE
"387",27,4,"1541","true","s","s","sk","s","f","red","c,f,i,l","magenta,red,blue,green",0.65,0.583333333333333,0.616666666666667,1.2,1.33333333333333,1.26666666666667,FALSE,FALSE,FALSE
"388",28,4,"1727","false","k","s","sk","s","f","black","c,f,i,j","magenta,black,red,green",0.65,0.583333333333333,0.616666666666667,1.2,1.33333333333333,1.26666666666667,FALSE,FALSE,FALSE
"389",29,8,"1660","false","s","k","sk","d","c","yellow","c,b,f,d,g,h,l,k","black,blue,green,red,cyan,orange,magenta,brown",0.65,0.583333333333333,0.616666666666667,1.2,1.33333333333333,1.26666666666667,FALSE,FALSE,FALSE
"390",30,4,"1127","true","k","k","sk","d","a","blue","a,f,g,k","black,magenta,red,cyan",0.65,0.583333333333333,0.616666666666667,1.2,1.33333333333333,1.26666666666667,FALSE,FALSE,FALSE
"391",31,4,"2190","false","k","s","sk","s","h","red","b,f,h,k","brown,green,red,magenta",0.65,0.583333333333333,0.616666666666667,1.2,1.33333333333333,1.26666666666667,FALSE,FALSE,FALSE
"392",32,8,"3051","false","s","k","sk","d","j","black","c,b,d,f,i,h,j,k","orange,cyan,magenta,brown,green,yellow,red,blue",0.65,0.583333333333333,0.616666666666667,1.2,1.33333333333333,1.26666666666667,FALSE,FALSE,FALSE
"393",33,4,"1363","false","k","s","sk","s","a","orange","a,f,i,l","orange,black,red,cyan",0.65,0.583333333333333,0.616666666666667,1.2,1.33333333333333,1.26666666666667,FALSE,FALSE,FALSE
"394",34,8,"2026","false","k","s","sk","s","l","magenta","a,c,f,d,g,i,l,j","green,yellow,brown,orange,black,cyan,magenta,blue",0.65,0.583333333333333,0.616666666666667,1.2,1.33333333333333,1.26666666666667,FALSE,FALSE,FALSE
"395",35,8,"1894","false","s","k","sk","d","c","black","c,a,d,e,h,i,k,l","magenta,red,cyan,orange,yellow,brown,blue,green",0.65,0.583333333333333,0.616666666666667,1.2,1.33333333333333,1.26666666666667,FALSE,FALSE,FALSE
"396",36,4,"1994","false","s","k","sk","d","f","magenta","a,f,h,j","black,orange,red,cyan",0.65,0.583333333333333,0.616666666666667,1.2,1.33333333333333,1.26666666666667,FALSE,FALSE,FALSE
"397",37,8,"1675","true","k","k","sk","d","j","cyan","c,b,d,f,h,i,j,k","green,brown,blue,red,orange,magenta,black,yellow",0.65,0.583333333333333,0.616666666666667,1.2,1.33333333333333,1.26666666666667,FALSE,FALSE,FALSE
"398",38,4,"1297","true","s","s","sk","s","l","black","a,f,i,l","red,brown,magenta,black",0.65,0.583333333333333,0.616666666666667,1.2,1.33333333333333,1.26666666666667,FALSE,FALSE,FALSE
"399",39,8,"1147","true","k","k","sk","d","d","red","b,c,d,e,h,g,j,l","brown,yellow,cyan,green,blue,black,orange,magenta",0.65,0.583333333333333,0.616666666666667,1.2,1.33333333333333,1.26666666666667,FALSE,FALSE,FALSE
"400",40,8,"1582","true","s","s","sk","s","b","brown","b,c,f,d,g,h,k,j","brown,red,magenta,green,yellow,blue,orange,black",0.65,0.583333333333333,0.616666666666667,1.2,1.33333333333333,1.26666666666667,FALSE,FALSE,FALSE
"401",41,8,"2032","false","k","s","sk","s","c","red","a,c,e,d,g,h,j,k","blue,red,orange,black,magenta,yellow,green,cyan",0.65,0.583333333333333,0.616666666666667,1.2,1.33333333333333,1.26666666666667,FALSE,FALSE,FALSE
"402",42,4,"1510","false","k","s","sk","s","f","yellow","a,f,h,j","magenta,yellow,cyan,green",0.65,0.583333333333333,0.616666666666667,1.2,1.33333333333333,1.26666666666667,FALSE,FALSE,FALSE
"403",43,8,"1775","false","k","s","sk","s","j","brown","b,a,d,f,g,h,j,k","magenta,blue,green,orange,cyan,red,brown,black",0.65,0.583333333333333,0.616666666666667,1.2,1.33333333333333,1.26666666666667,FALSE,FALSE,FALSE
"404",44,4,"1302","true","k","k","sk","d","c","cyan","c,e,h,l","yellow,blue,black,red",0.65,0.583333333333333,0.616666666666667,1.2,1.33333333333333,1.26666666666667,FALSE,FALSE,FALSE
"405",45,4,"2511","true","k","k","sk","d","e","blue","c,e,i,l","orange,cyan,black,green",0.65,0.583333333333333,0.616666666666667,1.2,1.33333333333333,1.26666666666667,FALSE,FALSE,FALSE
"406",46,8,"2911","false","k","s","sk","s","l","green","a,b,e,f,h,i,l,j","yellow,cyan,orange,brown,black,red,green,magenta",0.65,0.583333333333333,0.616666666666667,1.2,1.33333333333333,1.26666666666667,FALSE,FALSE,FALSE
"407",47,8,"1247","true","s","s","sk","s","d","green","b,c,f,d,i,h,l,k","brown,magenta,yellow,green,red,blue,black,cyan",0.65,0.583333333333333,0.616666666666667,1.2,1.33333333333333,1.26666666666667,FALSE,FALSE,FALSE
"408",48,4,"1088","true","s","s","sk","s","b","green","b,d,i,l","green,yellow,cyan,magenta",0.65,0.583333333333333,0.616666666666667,1.2,1.33333333333333,1.26666666666667,FALSE,FALSE,FALSE
"409",49,8,"1502","true","s","s","sk","s","j","blue","c,b,e,d,h,i,j,k","yellow,green,red,brown,magenta,black,blue,orange",0.65,0.583333333333333,0.616666666666667,1.2,1.33333333333333,1.26666666666667,FALSE,FALSE,FALSE
"410",50,8,"1676","true","k","k","sk","d","h","red","b,a,d,e,h,i,l,j","cyan,green,magenta,brown,black,orange,yellow,blue",0.65,0.583333333333333,0.616666666666667,1.2,1.33333333333333,1.26666666666667,FALSE,FALSE,FALSE
"411",51,8,"1433","true","k","k","sk","d","f","blue","b,a,f,e,h,g,k,l","red,black,green,cyan,yellow,magenta,orange,brown",0.65,0.583333333333333,0.616666666666667,1.2,1.33333333333333,1.26666666666667,FALSE,FALSE,FALSE
"412",52,8,"1294","true","s","s","sk","s","b","orange","c,b,d,e,h,i,j,k","brown,orange,red,cyan,magenta,yellow,black,green",0.65,0.583333333333333,0.616666666666667,1.2,1.33333333333333,1.26666666666667,FALSE,FALSE,FALSE
"413",53,4,"1170","true","k","k","sk","d","i","green","a,e,i,j","cyan,orange,brown,black",0.65,0.583333333333333,0.616666666666667,1.2,1.33333333333333,1.26666666666667,FALSE,FALSE,FALSE
"414",54,8,"1308","false","k","s","sk","s","j","black","b,c,d,e,i,g,j,l","orange,green,yellow,magenta,brown,cyan,black,blue",0.65,0.583333333333333,0.616666666666667,1.2,1.33333333333333,1.26666666666667,FALSE,FALSE,FALSE
"415",55,4,"1404","true","s","s","sk","s","i","brown","c,e,i,j","blue,green,brown,red",0.65,0.583333333333333,0.616666666666667,1.2,1.33333333333333,1.26666666666667,FALSE,FALSE,FALSE
"416",56,4,"1077","true","s","s","sk","s","b","magenta","b,f,g,k","magenta,orange,black,green",0.65,0.583333333333333,0.616666666666667,1.2,1.33333333333333,1.26666666666667,FALSE,FALSE,FALSE
"417",57,4,"830","false","k","s","sk","s","a","green","a,f,g,j","green,brown,orange,magenta",0.65,0.583333333333333,0.616666666666667,1.2,1.33333333333333,1.26666666666667,FALSE,FALSE,FALSE
"418",58,4,"789","false","k","s","sk","s","d","brown","c,d,h,k","blue,brown,green,black",0.65,0.583333333333333,0.616666666666667,1.2,1.33333333333333,1.26666666666667,FALSE,FALSE,FALSE
"419",59,4,"1038","true","k","k","sk","d","g","green","c,d,g,j","red,yellow,black,brown",0.65,0.583333333333333,0.616666666666667,1.2,1.33333333333333,1.26666666666667,FALSE,FALSE,FALSE
"420",60,8,"1068","true","s","s","sk","s","l","brown","a,c,f,d,i,g,k,l","green,black,cyan,red,yellow,blue,orange,brown",0.65,0.583333333333333,0.616666666666667,1.2,1.33333333333333,1.26666666666667,FALSE,FALSE,FALSE
"421",61,4,"663","true","s","s","sk","s","b","magenta","b,f,h,k","magenta,cyan,orange,green",0.65,0.583333333333333,0.616666666666667,1.2,1.33333333333333,1.26666666666667,FALSE,FALSE,FALSE
"422",62,8,"794","true","k","k","sk","d","k","orange","b,a,e,d,g,h,k,j","green,red,yellow,cyan,magenta,brown,black,blue",0.65,0.583333333333333,0.616666666666667,1.2,1.33333333333333,1.26666666666667,FALSE,FALSE,FALSE
"423",63,8,"1577","true","k","k","sk","d","d","brown","a,b,d,f,i,h,j,k","yellow,magenta,green,cyan,red,blue,black,orange",0.65,0.583333333333333,0.616666666666667,1.2,1.33333333333333,1.26666666666667,FALSE,FALSE,FALSE
"424",64,4,"1301","false","s","k","sk","d","a","red","a,e,h,l","orange,yellow,blue,green",0.65,0.583333333333333,0.616666666666667,1.2,1.33333333333333,1.26666666666667,FALSE,FALSE,FALSE
"425",65,4,"1251","true","s","s","sk","s","e","orange","b,e,h,j","black,orange,blue,cyan",0.65,0.583333333333333,0.616666666666667,1.2,1.33333333333333,1.26666666666667,FALSE,FALSE,FALSE
"426",66,4,"1881","true","s","s","sk","s","b","black","b,e,h,k","black,magenta,cyan,orange",0.65,0.583333333333333,0.616666666666667,1.2,1.33333333333333,1.26666666666667,FALSE,FALSE,FALSE
"427",67,8,"1254","false","k","s","sk","s","f","green","b,a,e,f,h,i,l,k","magenta,red,black,green,cyan,brown,yellow,orange",0.65,0.583333333333333,0.616666666666667,1.2,1.33333333333333,1.26666666666667,FALSE,FALSE,FALSE
"428",68,4,"1609","true","k","k","sk","d","f","orange","c,f,h,j","blue,magenta,green,red",0.65,0.583333333333333,0.616666666666667,1.2,1.33333333333333,1.26666666666667,FALSE,FALSE,FALSE
"429",69,4,"1228","true","s","s","sk","s","d","red","a,d,h,l","cyan,red,blue,black",0.65,0.583333333333333,0.616666666666667,1.2,1.33333333333333,1.26666666666667,FALSE,FALSE,FALSE
"430",70,4,"1321","true","k","k","sk","d","d","magenta","c,d,i,l","red,brown,yellow,green",0.65,0.583333333333333,0.616666666666667,1.2,1.33333333333333,1.26666666666667,FALSE,FALSE,FALSE
"431",71,4,"1212","true","k","k","sk","d","h","yellow","a,d,h,j","orange,cyan,black,blue",0.65,0.583333333333333,0.616666666666667,1.2,1.33333333333333,1.26666666666667,FALSE,FALSE,FALSE
"432",72,8,"1310","false","k","s","sk","s","f","blue","b,a,d,f,i,h,k,l","brown,orange,red,blue,magenta,green,cyan,black",0.65,0.583333333333333,0.616666666666667,1.2,1.33333333333333,1.26666666666667,FALSE,FALSE,FALSE
"433",73,8,"1060","true","k","k","sk","d","e","black","a,b,e,f,g,h,k,l","green,blue,cyan,brown,orange,red,magenta,yellow",0.65,0.583333333333333,0.616666666666667,1.2,1.33333333333333,1.26666666666667,FALSE,FALSE,FALSE
"434",74,4,"1405","false","s","k","sk","d","l","magenta","b,d,i,l","red,brown,black,green",0.65,0.583333333333333,0.616666666666667,1.2,1.33333333333333,1.26666666666667,FALSE,FALSE,FALSE
"435",75,8,"1071","true","k","k","sk","d","b","red","b,c,f,e,g,i,k,j","blue,brown,black,green,cyan,magenta,yellow,orange",0.65,0.583333333333333,0.616666666666667,1.2,1.33333333333333,1.26666666666667,FALSE,FALSE,FALSE
"436",76,4,"1255","false","s","k","sk","d","f","brown","c,f,g,l","green,magenta,blue,black",0.65,0.583333333333333,0.616666666666667,1.2,1.33333333333333,1.26666666666667,FALSE,FALSE,FALSE
"437",77,4,"1382","true","s","s","sk","s","d","yellow","c,d,h,k","cyan,yellow,orange,brown",0.65,0.583333333333333,0.616666666666667,1.2,1.33333333333333,1.26666666666667,FALSE,FALSE,FALSE
"438",78,8,"1063","true","k","k","sk","d","b","brown","a,b,e,f,h,i,l,j","yellow,blue,orange,magenta,cyan,black,green,red",0.65,0.583333333333333,0.616666666666667,1.2,1.33333333333333,1.26666666666667,FALSE,FALSE,FALSE
"439",79,4,"1300","false","s","k","sk","d","g","brown","a,f,g,k","green,cyan,black,magenta",0.65,0.583333333333333,0.616666666666667,1.2,1.33333333333333,1.26666666666667,FALSE,FALSE,FALSE
"440",80,4,"946","true","k","k","sk","d","l","yellow","a,d,h,l","orange,red,green,cyan",0.65,0.583333333333333,0.616666666666667,1.2,1.33333333333333,1.26666666666667,FALSE,FALSE,FALSE
"441",81,8,"1061","false","s","k","sk","d","h","cyan","c,b,e,f,g,h,j,l","brown,orange,green,black,magenta,yellow,blue,red",0.65,0.583333333333333,0.616666666666667,1.2,1.33333333333333,1.26666666666667,FALSE,FALSE,FALSE
"442",82,4,"1810","true","s","s","sk","s","h","brown","c,f,h,k","magenta,yellow,brown,orange",0.65,0.583333333333333,0.616666666666667,1.2,1.33333333333333,1.26666666666667,FALSE,FALSE,FALSE
"443",83,8,"1332","true","k","k","sk","d","i","orange","c,b,d,e,h,i,l,j","green,yellow,blue,black,brown,red,cyan,magenta",0.65,0.583333333333333,0.616666666666667,1.2,1.33333333333333,1.26666666666667,FALSE,FALSE,FALSE
"444",84,8,"1105","true","k","k","sk","d","d","red","c,b,f,d,i,g,l,k","green,yellow,brown,cyan,magenta,blue,orange,black",0.65,0.583333333333333,0.616666666666667,1.2,1.33333333333333,1.26666666666667,FALSE,FALSE,FALSE
"445",85,4,"886","true","k","k","sk","d","j","magenta","c,f,i,j","green,yellow,cyan,orange",0.65,0.583333333333333,0.616666666666667,1.2,1.33333333333333,1.26666666666667,FALSE,FALSE,FALSE
"446",86,8,"819","false","k","s","sk","s","d","black","b,c,e,d,g,h,j,l","red,brown,blue,black,cyan,orange,magenta,yellow",0.65,0.583333333333333,0.616666666666667,1.2,1.33333333333333,1.26666666666667,FALSE,FALSE,FALSE
